"Directivity Index"			
"Sound Power DI"		"Early Reflections DI"	
"Frequency [Hz]"	"[dB] Directivity Index "	"Frequency [Hz]"	"[dB] Directivity Index "
20.5078	-5.63101	20.5078	-1.05673
21.9727	-5.42388	21.9727	-1.06188
23.4375	-4.20197	23.4375	-0.407062
24.9023	-3.97237	24.9023	-0.515409
26.3672	-3.32163	26.3672	-0.311865
27.832	-3.11968	27.832	-0.322402
29.2969	-2.78235	29.2969	-0.298598
30.7617	-2.64074	30.7617	-0.312907
32.2266	-2.76887	32.2266	-0.487535
33.6914	-2.62984	33.6914	-0.521767
35.1563	-2.39739	35.1563	-0.497849
36.6211	-2.34624	36.6211	-0.53793
38.0859	-2.23987	38.0859	-0.544906
39.5508	-2.10961	39.5508	-0.535692
41.0156	-1.94102	41.0156	-0.51186
42.4805	-1.94342	42.4805	-0.531846
43.9453	-1.82504	43.9453	-0.521329
45.4102	-1.60766	45.4102	-0.452596
46.875	-1.58275	46.875	-0.450268
48.3398	-1.69244	48.3398	-0.525205
51.2695	-1.4498	51.2695	-0.466513
52.7344	-1.35495	52.7344	-0.439426
54.1992	-1.34401	54.1992	-0.449496
55.6641	-1.2345	55.6641	-0.415154
58.5938	-1.13373	58.5938	-0.392238
60.0586	-1.07903	60.0586	-0.37783
62.9883	-0.977305	62.9883	-0.350335
64.4531	-0.929229	64.4531	-0.3371
67.3828	-0.850729	67.3828	-0.31787
68.8477	-0.820409	68.8477	-0.310371
71.7773	-0.75541	71.7773	-0.291971
74.707	-0.668661	74.707	-0.265396
77.6367	-0.594458	77.6367	-0.243459
79.1016	-0.565317	79.1016	-0.23453
82.0313	-0.523171	82.0313	-0.222552
84.9609	-0.514222	84.9609	-0.223413
87.8906	-0.442625	87.8906	-0.198963
90.8203	-0.369984	90.8203	-0.173274
95.2148	-0.301692	95.2148	-0.151324
98.1445	-0.28114	98.1445	-0.145942
101.074	-0.225448	101.074	-0.127065
105.469	-0.201645	105.469	-0.120086
108.398	-0.19803	108.398	-0.117841
112.793	-0.13915	112.793	-0.0916182
117.188	-0.0778387	117.188	-0.0701957
120.117	-0.0739311	120.117	-0.066044
124.512	-0.00362615	124.512	-0.0395151
128.906	0.0237882	128.906	-0.0291964
133.301	0.0163926	133.301	-0.031144
139.16	0.0461612	139.16	-0.0155062
143.555	0.118614	143.555	0.0156746
147.949	0.195832	147.949	0.0480553
153.809	0.20013	153.809	0.0489065
159.668	0.210231	159.668	0.0591999
165.527	0.241325	165.527	0.0800295
171.387	0.31674	171.387	0.10977
177.246	0.336954	177.246	0.123079
183.105	0.449006	183.105	0.181041
188.965	0.644681	188.965	0.253213
196.289	0.638977	196.289	0.244268
203.613	0.661239	203.613	0.266381
210.938	0.775293	210.938	0.310937
218.262	0.799101	218.262	0.326578
225.586	0.854581	225.586	0.368942
232.91	1.11514	232.91	0.459461
241.699	1.15414	241.699	0.450345
250.488	1.16851	250.488	0.512276
259.277	1.37185	259.277	0.555849
268.066	1.25359	268.066	0.516954
276.855	1.41101	276.855	0.581308
287.109	1.63622	287.109	0.673743
297.363	1.69324	297.363	0.707345
307.617	1.65747	307.617	0.662303
319.336	1.70478	319.336	0.684476
329.59	1.95041	329.59	0.752151
341.309	1.75659	341.309	0.6518
353.027	1.92123	353.027	0.793086
366.211	2.30124	366.211	0.886834
379.395	2.1421	379.395	0.784176
392.578	1.89531	392.578	0.691541
405.762	1.83757	405.762	0.746739
420.41	2.41112	420.41	0.984822
435.059	2.06265	435.059	0.861318
451.172	2.47955	451.172	1.19409
465.82	2.92951	465.82	1.44781
483.398	3.4205	483.398	1.80043
499.512	3.45794	499.512	1.61429
517.09	3.683	517.09	1.60692
536.133	3.46932	536.133	1.5589
555.176	4.11178	555.176	1.65354
574.219	3.89349	574.219	1.50457
594.727	3.89638	594.727	1.42734
615.234	4.02397	615.234	1.51113
637.207	3.77022	637.207	1.30247
659.18	4.14015	659.18	1.55873
682.617	3.93707	682.617	1.41324
707.52	4.133	707.52	1.48663
732.422	4.2452	732.422	1.59419
757.324	4.19965	757.324	1.51995
785.156	4.4196	785.156	1.62296
811.523	4.40144	811.523	1.74065
840.82	4.72521	840.82	2.03099
870.117	4.94534	870.117	2.26621
900.879	5.24488	900.879	2.57794
933.105	5.17813	933.105	2.62521
965.332	5.20505	965.332	2.58554
1,000.49	5.08	1,000.49	2.36046
1,035.64	5.18977	1,035.64	2.27016
1,072.27	5.47474	1,072.27	2.36814
1,108.89	5.37251	1,108.89	2.33489
1,148.44	5.4037	1,148.44	2.30461
1,189.45	5.34629	1,189.45	2.33818
1,230.47	5.46165	1,230.47	2.32564
1,274.41	5.71343	1,274.41	2.43926
1,319.82	5.86481	1,319.82	2.52057
1,366.7	5.9528	1,366.7	2.5857
1,413.57	5.95069	1,413.57	2.54496
1,463.38	6.26845	1,463.38	2.73302
1,516.11	6.36988	1,516.11	2.85467
1,568.85	6.32102	1,568.85	2.75667
1,624.51	6.19708	1,624.51	2.7586
1,681.64	6.43977	1,681.64	2.87706
1,741.7	6.68282	1,741.7	2.88088
1,803.22	6.88221	1,803.22	2.99393
1,866.21	7.1031	1,866.21	3.15152
1,932.13	6.98337	1,932.13	3.02696
1,999.51	6.87682	1,999.51	3.02147
2,069.82	6.6027	2,069.82	2.90918
2,143.07	6.39812	2,143.07	2.88752
2,219.24	6.68951	2,219.24	2.86461
2,296.88	6.29887	2,296.88	2.68526
2,378.91	5.84835	2,378.91	2.34145
2,462.4	5.43776	2,462.4	2.14337
2,548.83	4.85078	2,548.83	1.8539
2,639.65	5.05852	2,639.65	1.90241
2,731.93	5.09801	2,731.93	1.92465
2,828.61	4.80405	2,828.61	1.69015
2,928.22	5.00392	2,928.22	1.84257
3,030.76	4.81181	3,030.76	1.69813
3,137.7	4.86764	3,137.7	1.68165
3,249.02	4.97813	3,249.02	1.66722
3,363.28	5.07574	3,363.28	1.66407
3,481.93	5.33707	3,481.93	1.88982
3,604.98	5.50704	3,604.98	1.89806
3,732.42	5.44596	3,732.42	1.88413
3,864.26	5.69283	3,864.26	1.99774
4,000.49	5.86796	4,000.49	2.06529
4,141.11	6.13144	4,141.11	2.14287
4,287.6	6.34169	4,287.6	2.32458
4,438.48	6.53934	4,438.48	2.41076
4,595.21	6.85043	4,595.21	2.67417
4,756.35	7.14525	4,756.35	2.79983
4,924.8	7.01559	4,924.8	2.83041
5,097.66	6.88119	5,097.66	2.64578
5,277.83	6.74656	5,277.83	2.59474
5,463.87	6.40595	5,463.87	2.40486
5,657.23	6.45133	5,657.23	2.41844
5,856.45	6.52507	5,856.45	2.40796
6,062.99	6.50331	6,062.99	2.4296
6,276.86	6.3353	6,276.86	2.40713
6,498.05	6.19496	6,498.05	2.37646
6,726.56	6.3359	6,726.56	2.42903
6,963.87	6.5895	6,963.87	2.43854
7,209.96	6.73264	7,209.96	2.46187
7,464.84	6.78329	7,464.84	2.54253
7,727.05	6.87838	7,727.05	2.69888
7,999.51	7.08856	7,999.51	2.90407
8,282.23	7.30629	8,282.23	3.05556
8,573.73	7.46483	8,573.73	3.10094
8,876.95	7.55302	8,876.95	3.13045
9,188.96	7.65503	9,188.96	3.16883
9,514.16	7.74573	9,514.16	3.28977
9,849.61	8.00675	9,849.61	3.51827
10,196.8	8.25252	10,196.8	3.64072
10,555.7	8.44499	10,555.7	3.72822
10,927.7	8.55018	10,927.7	3.77358
11,313	8.71492	11,313	3.86386
11,712.9	8.89381	11,712.9	3.97985
12,126	9.0737	12,126	4.12754
12,553.7	9.18828	12,553.7	4.1877
12,996.1	9.20592	12,996.1	4.12454
13,454.6	9.29493	13,454.6	4.11715
13,929.2	9.3964	13,929.2	4.14498
14,419.9	9.41407	14,419.9	4.19417
14,928.2	9.5824	14,928.2	4.329
15,455.6	9.68884	15,455.6	4.39391
16,000.5	9.73628	16,000.5	4.40638
16,564.5	9.85787	16,564.5	4.43663
17,148.9	9.98038	17,148.9	4.52012
17,752.4	10.1189	17,752.4	4.60334
18,379.4	10.2485	18,379.4	4.66373
19,026.9	10.471	19,026.9	4.81019
19,697.8	10.6654	19,697.8	4.95223
19,999.5	10.6835	19,999.5	5.0197
