"Directivity Index"			
"Sound Power DI"		"Early Reflections DI"	
"Frequency [Hz]"	"[dB] Directivity Index "	"Frequency [Hz]"	"[dB] Directivity Index "
20.5078	-0.207086	20.5078	-0.101893
21.2402	-1.78545	21.2402	-0.698293
21.9727	-1.19632	21.9727	-0.447028
22.7051	-0.135656	22.7051	-0.0200201
23.4375	-0.42919	23.4375	-0.139091
24.1699	-0.361564	24.1699	-0.0610911
25.6348	-0.959622	25.6348	-0.300369
26.3672	-0.309804	26.3672	-0.0410778
27.0996	-0.360212	27.0996	-0.0643253
27.832	-0.240863	27.832	-0.00570747
29.2969	-0.655446	29.2969	-0.175227
30.0293	-0.374312	30.0293	-0.0846556
31.4941	-0.275241	31.4941	-0.0457748
32.2266	-0.328828	32.2266	-0.0618095
33.6914	-0.333467	33.6914	-0.0753988
34.4238	-0.308176	34.4238	-0.0666189
35.8887	-0.258236	35.8887	-0.0492644
37.3535	-0.193748	37.3535	-0.0295361
38.8184	-0.154983	38.8184	-0.0161709
39.5508	-0.132435	39.5508	-0.00864486
41.0156	-0.0670122	41.0156	0.0263303
42.4805	-0.0664579	42.4805	0.0152759
43.9453	-0.0516602	43.9453	0.0199138
45.4102	-0.0222856	45.4102	0.030567
47.6074	-0.00244013	47.6074	0.0355031
49.0723	0.0166822	49.0723	0.0419824
50.5371	0.0307912	50.5371	0.0467753
52.7344	0.0422287	52.7344	0.0502031
54.1992	0.052372	54.1992	0.0536617
56.3965	0.0598219	56.3965	0.0559009
58.5938	0.0669825	58.5938	0.0582244
60.0586	0.0746138	60.0586	0.0608758
62.2559	0.0961692	62.2559	0.0689537
64.4531	0.102671	64.4531	0.0711903
66.6504	0.112251	66.6504	0.0755143
69.5801	0.129494	69.5801	0.0826896
71.7773	0.137845	71.7773	0.0860346
73.9746	0.13422	73.9746	0.0848162
76.9043	0.143901	76.9043	0.0887722
79.834	0.147796	79.834	0.0921218
82.7637	0.175238	82.7637	0.103775
85.6934	0.210404	85.6934	0.117082
88.623	0.223692	88.623	0.121916
91.5527	0.167354	91.5527	0.101084
94.4824	0.112732	94.4824	0.0876044
98.1445	0.252111	98.1445	0.139772
101.807	0.244739	101.807	0.136932
105.469	0.247612	105.469	0.139623
109.131	0.253281	109.131	0.14334
112.793	0.283502	112.793	0.154733
116.455	0.265314	116.455	0.149554
120.85	0.325234	120.85	0.174249
125.244	0.366326	125.244	0.190375
129.639	0.348961	129.639	0.184611
134.033	0.295119	134.033	0.165459
138.428	0.272533	138.428	0.165665
143.555	0.366466	143.555	0.208942
148.682	0.435076	148.682	0.233197
153.809	0.42985	153.809	0.232621
159.668	0.455608	159.668	0.247764
164.795	0.564388	164.795	0.286186
170.654	0.552661	170.654	0.278343
176.514	0.498611	176.514	0.266654
183.105	0.52472	183.105	0.285881
189.697	0.568274	189.697	0.302325
196.289	0.611973	196.289	0.328756
202.881	0.706493	202.881	0.362736
210.205	0.744271	210.205	0.38044
217.529	0.778022	217.529	0.388509
225.586	0.846616	225.586	0.416707
232.91	0.944299	232.91	0.449634
241.699	0.915861	241.699	0.434402
249.756	0.942844	249.756	0.460369
258.545	0.767995	258.545	0.40576
268.066	0.892445	268.066	0.464514
277.588	0.789283	277.588	0.44589
287.109	0.93966	287.109	0.528995
297.363	1.14473	297.363	0.610589
307.617	1.12382	307.617	0.614077
318.604	1.41039	318.604	0.720441
329.59	1.47493	329.59	0.724383
341.309	1.5209	341.309	0.78855
353.76	1.79826	353.76	0.856364
366.211	1.80592	366.211	0.833538
378.662	1.88904	378.662	0.896366
392.578	2.01472	392.578	0.910194
405.762	2.09305	405.762	0.955677
420.41	2.18193	420.41	0.984235
435.059	2.15618	435.059	0.997928
450.439	2.43056	450.439	1.10348
466.553	2.49283	466.553	1.14564
482.666	2.67335	482.666	1.11667
500.244	2.83025	500.244	1.20518
517.822	2.73662	517.822	1.01264
536.133	2.96931	536.133	1.08624
554.443	2.77183	554.443	0.91226
574.219	2.52615	574.219	0.943532
594.727	3.17543	594.727	1.17534
615.234	3.18391	615.234	1.07335
637.207	3.18799	637.207	1.04189
659.912	2.99342	659.912	0.942052
683.35	3.00963	683.35	0.950407
706.787	2.64756	706.787	0.683932
731.689	2.90572	731.689	0.856215
758.057	3.3148	758.057	1.02357
784.424	3.45731	784.424	1.06463
812.256	3.01805	812.256	0.766147
840.82	2.71571	840.82	0.724314
870.85	3.0253	870.85	0.973
901.611	3.05521	901.611	0.994356
933.105	3.564	933.105	1.32027
966.064	3.96487	966.064	1.67626
999.756	4.46619	999.756	2.08046
1,034.91	4.52046	1,034.91	2.04044
1,071.53	4.34011	1,071.53	1.86911
1,109.62	4.3825	1,109.62	1.86919
1,148.44	4.4735	1,148.44	1.81866
1,189.45	4.80466	1,189.45	2.01225
1,231.2	5.01571	1,231.2	2.1703
1,274.41	4.71224	1,274.41	2.02122
1,319.82	4.67246	1,319.82	2.06803
1,365.97	4.77843	1,365.97	2.07209
1,414.31	4.53681	1,414.31	1.91702
1,464.11	4.80081	1,464.11	2.01683
1,515.38	5.29279	1,515.38	2.25551
1,568.85	5.72935	1,568.85	2.31361
1,624.51	6.17355	1,624.51	2.56321
1,681.64	5.93832	1,681.64	2.32648
1,740.97	6.82305	1,740.97	2.64602
1,802.49	7.04302	1,802.49	2.79123
1,866.21	6.74858	1,866.21	2.65561
1,932.13	6.54413	1,932.13	2.6151
2,000.24	7.05936	2,000.24	3.07259
2,070.56	7.11543	2,070.56	3.16678
2,143.8	6.74709	2,143.8	2.99341
2,219.24	6.2544	2,219.24	2.78698
2,297.61	6.8169	2,297.61	3.02319
2,378.17	7.08739	2,378.17	3.21748
2,462.4	7.02966	2,462.4	3.18098
2,548.83	6.97327	2,548.83	3.18775
2,638.92	7.08964	2,638.92	3.18716
2,731.93	6.90104	2,731.93	3.09176
2,828.61	6.93424	2,828.61	3.00792
2,928.22	6.99062	2,928.22	3.03335
3,031.49	6.97652	3,031.49	3.05404
3,138.43	7.28694	3,138.43	3.18097
3,249.02	7.40373	3,249.02	3.25072
3,363.28	7.1704	3,363.28	3.23045
3,481.93	7.25298	3,481.93	3.24376
3,604.98	7.23743	3,604.98	3.27336
3,732.42	7.06471	3,732.42	3.12278
3,863.53	7.20677	3,863.53	3.21644
3,999.76	7.38991	3,999.76	3.28071
4,141.11	7.28118	4,141.11	3.18964
4,286.87	7.49814	4,286.87	3.20538
4,438.48	7.56122	4,438.48	3.25739
4,594.48	8.11617	4,594.48	3.49619
4,757.08	8.35617	4,757.08	3.57806
4,924.8	8.50709	4,924.8	3.6473
5,098.39	8.72051	5,098.39	3.77242
5,277.83	8.54245	5,277.83	3.73119
5,463.87	8.63096	5,463.87	3.72552
5,656.49	8.44128	5,656.49	3.59847
5,856.45	8.37877	5,856.45	3.55023
6,062.99	8.54246	6,062.99	3.63805
6,276.86	8.74151	6,276.86	3.72483
6,498.05	8.61386	6,498.05	3.71066
6,727.29	8.82169	6,727.29	3.78985
6,964.6	8.96228	6,964.6	3.8642
7,209.96	8.94234	7,209.96	3.8256
7,464.11	8.64825	7,464.11	3.67477
7,727.78	8.41997	7,727.78	3.61194
8,000.24	8.49829	8,000.24	3.74187
8,282.23	8.86876	8,282.23	3.90953
8,574.46	9.16817	8,574.46	4.03208
8,876.22	9.19611	8,876.22	4.03536
9,189.7	9.13921	9,189.7	4.02335
9,513.43	9.06485	9,513.43	4.01079
9,848.88	9.30063	9,848.88	4.22105
10,196.8	9.63413	10,196.8	4.40606
10,556.4	9.90934	10,556.4	4.46491
10,928.5	10.1351	10,928.5	4.48997
11,313.7	10.1261	11,313.7	4.54242
11,712.9	9.92129	11,712.9	4.69621
12,126	9.93785	12,126	4.75348
12,553.7	9.87724	12,553.7	4.49559
12,996.1	9.36418	12,996.1	4.13279
13,454.6	8.41127	13,454.6	3.64502
13,928.5	7.17649	13,928.5	2.86144
14,419.9	6.34766	14,419.9	2.30642
14,928.2	6.48008	14,928.2	2.40271
15,454.8	6.99443	15,454.8	2.82234
15,999.8	7.36138	15,999.8	3.12643
16,564.5	7.47671	16,564.5	3.20286
17,148.2	7.91471	17,148.2	3.40717
17,753.2	8.46446	17,753.2	3.73573
18,379.4	8.50036	18,379.4	3.7617
19,027.6	8.62239	19,027.6	3.83764
19,698.5	9.43591	19,698.5	4.32889
19,999.5	9.89649	19,999.5	4.55091
