"Directivity Index"			
"Sound Power DI"		"Early Reflections DI"	
"Frequency [Hz]"	"[dB] Directivity Index "	"Frequency [Hz]"	"[dB] Directivity Index "
20.5078	-2.35345	20.5078	-0.900827
21.9727	-2.51941	21.9727	-0.981233
23.4375	-1.07729	23.4375	-0.390542
24.9023	-0.287835	24.9023	-0.0333901
26.3672	-7.79887	26.3672	-3.98049
27.832	-2.4267	27.832	-0.911871
29.2969	-1.95885	29.2969	-0.731703
30.7617	-1.79201	30.7617	-0.661597
32.2266	-1.60058	32.2266	-0.587505
33.6914	-1.18145	33.6914	-0.419489
35.1563	-0.850986	35.1563	-0.288585
36.6211	-0.87238	36.6211	-0.298171
38.0859	-0.854012	38.0859	-0.293165
39.5508	-0.807529	39.5508	-0.280838
41.0156	-0.734891	41.0156	-0.258371
42.4805	-0.675058	42.4805	-0.240234
43.9453	-0.54406	43.9453	-0.193485
45.4102	-0.495052	45.4102	-0.176553
46.875	-0.488834	46.875	-0.176173
48.3398	-0.452548	48.3398	-0.164675
51.2695	-0.387425	51.2695	-0.142315
52.7344	-0.352688	52.7344	-0.131397
54.1992	-0.298732	54.1992	-0.112276
55.6641	-0.279086	55.6641	-0.106064
58.5938	-0.206257	58.5938	-0.0810948
60.0586	-0.201129	60.0586	-0.0789287
62.9883	-0.183424	62.9883	-0.071566
64.4531	-0.15915	64.4531	-0.0618027
67.3828	-0.0927995	67.3828	-0.0344871
68.8477	-0.0555963	68.8477	-0.0196722
71.7773	-0.0345308	71.7773	-0.0112644
74.707	-0.0280764	74.707	-0.00859547
77.6367	0.0178012	77.6367	0.00934454
79.1016	0.040976	79.1016	0.0196364
82.0313	0.098223	82.0313	0.0440464
84.9609	0.0839968	84.9609	0.0419609
87.8906	-0.00956304	87.8906	0.0104028
90.8203	-0.168003	90.8203	-0.0309469
95.2148	0.256047	95.2148	0.11427
98.1445	0.270224	98.1445	0.136671
101.074	0.272694	101.074	0.13901
105.469	0.412442	105.469	0.193986
108.398	0.529212	108.398	0.239525
112.793	0.563539	112.793	0.255367
117.188	0.572513	117.188	0.268635
120.117	0.5762	120.117	0.271389
124.512	0.60075	124.512	0.288647
128.906	0.750207	128.906	0.347576
133.301	0.685491	133.301	0.32819
139.16	0.712755	139.16	0.367211
143.555	0.838451	143.555	0.427542
147.949	1.02493	147.949	0.505412
153.809	1.27054	153.809	0.584701
159.668	1.21382	159.668	0.570991
165.527	1.20087	165.527	0.574864
171.387	1.24766	171.387	0.593106
177.246	1.24846	177.246	0.618391
183.105	1.4577	183.105	0.713165
188.965	1.69859	188.965	0.776515
196.289	1.68411	196.289	0.763087
203.613	1.83222	203.613	0.830148
210.938	1.95831	210.938	0.853627
218.262	1.87819	218.262	0.856827
225.586	2.13244	225.586	0.976309
232.91	2.38424	232.91	1.00194
241.699	2.15726	241.699	0.922647
250.488	2.45573	250.488	1.1103
259.277	2.52318	259.277	1.06709
268.066	2.35241	268.066	1.00851
276.855	2.55712	276.855	1.08608
287.109	2.63952	287.109	1.10905
297.363	2.77188	297.363	1.16392
307.617	2.42531	307.617	1.06787
319.336	2.90804	319.336	1.30139
329.59	2.66597	329.59	1.06512
341.309	2.20276	341.309	0.967404
353.027	3.15189	353.027	1.43806
366.211	3.4735	366.211	1.49033
379.395	3.13008	379.395	1.19294
392.578	2.52738	392.578	1.11097
405.762	3.07236	405.762	1.52737
420.41	3.38932	420.41	1.55908
435.059	3.01227	435.059	1.60953
451.172	4.52751	451.172	2.00653
465.82	4.12886	465.82	1.82381
483.398	3.99782	483.398	1.8822
499.512	4.30152	499.512	2.04813
517.09	3.89986	517.09	2.19473
536.133	4.95962	536.133	2.62077
555.176	4.9011	555.176	2.18325
574.219	4.88357	574.219	2.21847
594.727	4.77774	594.727	2.27126
615.234	4.829	615.234	2.30639
637.207	4.85406	637.207	2.28841
659.18	4.46847	659.18	2.18975
682.617	4.14535	682.617	2.25611
707.52	4.57951	707.52	2.29034
732.422	3.48392	732.422	1.92189
757.324	3.414	757.324	1.8797
785.156	4.01641	785.156	2.09962
811.523	3.87296	811.523	2.27036
840.82	4.64315	840.82	2.74345
870.117	5.59127	870.117	2.73504
900.879	5.86867	900.879	2.71846
933.105	6.46658	933.105	2.83459
965.332	6.81328	965.332	2.9389
1,000.49	6.92401	1,000.49	2.94813
1,035.64	6.93692	1,035.64	2.98883
1,072.27	6.90577	1,072.27	2.9711
1,108.89	6.9209	1,108.89	2.92738
1,148.44	7.10637	1,148.44	3.04839
1,189.45	7.29235	1,189.45	3.22677
1,230.47	7.36595	1,230.47	3.22595
1,274.41	7.51715	1,274.41	3.3777
1,319.82	7.71303	1,319.82	3.5653
1,366.7	7.69742	1,366.7	3.77557
1,413.57	7.34056	1,413.57	3.79956
1,463.38	6.95212	1,463.38	3.7448
1,516.11	6.95894	1,516.11	3.91384
1,568.85	6.51035	1,568.85	3.76735
1,624.51	5.63773	1,624.51	3.38474
1,681.64	5.93745	1,681.64	3.18058
1,741.7	5.52874	1,741.7	3.09578
1,803.22	5.49656	1,803.22	3.00713
1,866.21	5.3655	1,866.21	2.91538
1,932.13	5.97271	1,932.13	3.00407
1,999.51	6.61467	1,999.51	3.23951
2,069.82	7.20867	2,069.82	3.36011
2,143.07	7.0654	2,143.07	3.4347
2,219.24	6.69852	2,219.24	3.17244
2,296.88	6.68472	2,296.88	3.0197
2,378.91	6.67412	2,378.91	3.19223
2,462.4	6.54085	2,462.4	3.14008
2,548.83	6.43246	2,548.83	2.94909
2,639.65	6.51425	2,639.65	2.91347
2,731.93	6.39873	2,731.93	2.8231
2,828.61	7.19329	2,828.61	3.02415
2,928.22	6.97117	2,928.22	2.70155
3,030.76	6.95722	3,030.76	2.75824
3,137.7	7.25398	3,137.7	3.0067
3,249.02	7.16929	3,249.02	2.8669
3,363.28	7.00528	3,363.28	2.7053
3,481.93	6.86924	3,481.93	2.68787
3,604.98	7.08668	3,604.98	2.81699
3,732.42	7.48868	3,732.42	3.07404
3,864.26	7.77433	3,864.26	3.22946
4,000.49	8.13502	4,000.49	3.52221
4,141.11	8.26944	4,141.11	3.57393
4,287.6	8.24211	4,287.6	3.68026
4,438.48	8.31701	4,438.48	3.74237
4,595.21	8.16757	4,595.21	3.47756
4,756.35	7.95913	4,756.35	3.41192
4,924.8	8.0001	4,924.8	3.44328
5,097.66	7.788	5,097.66	3.36486
5,277.83	7.90345	5,277.83	3.24166
5,463.87	7.94248	5,463.87	3.2113
5,657.23	7.94526	5,657.23	3.35109
5,856.45	8.28752	5,856.45	3.49072
6,062.99	8.45491	6,062.99	3.48173
6,276.86	8.59479	6,276.86	3.54003
6,498.05	8.47516	6,498.05	3.40606
6,726.56	8.59917	6,726.56	3.37444
6,963.87	8.53289	6,963.87	3.54052
7,209.96	8.31995	7,209.96	3.37482
7,464.84	8.4798	7,464.84	3.50543
7,727.05	8.90531	7,727.05	3.84769
7,999.51	9.07675	7,999.51	3.9336
8,282.23	9.27229	8,282.23	3.94347
8,573.73	9.59737	8,573.73	4.14757
8,876.95	9.82831	8,876.95	4.33285
9,188.96	10.3207	9,188.96	4.63247
9,514.16	10.4468	9,514.16	4.70289
9,849.61	10.4422	9,849.61	4.63937
10,196.8	10.4363	10,196.8	4.64194
10,555.7	10.5054	10,555.7	4.6495
10,927.7	10.4187	10,927.7	4.5906
11,313	10.4002	11,313	4.59219
11,712.9	10.3699	11,712.9	4.66408
12,126	9.98707	12,126	4.47276
12,553.7	9.56054	12,553.7	4.27126
12,996.1	9.29423	12,996.1	4.07174
13,454.6	9.12349	13,454.6	4.1297
13,929.2	10.9069	13,929.2	4.7506
14,419.9	9.73308	14,419.9	3.91914
14,928.2	7.60704	14,928.2	3.26938
15,455.6	8.16992	15,455.6	4.52813
16,000.5	10.515	16,000.5	5.59834
16,564.5	11.2434	16,564.5	5.36817
17,148.9	11.2624	17,148.9	4.81474
17,752.4	10.9209	17,752.4	4.40421
18,379.4	10.9067	18,379.4	4.35888
19,026.9	11.0027	19,026.9	4.51148
19,697.8	10.5069	19,697.8	4.70231
19,999.5	10.2299	19,999.5	4.79571
