"Directivity Index"			
"Sound Power DI"		"Early Reflections DI"	
"Frequency [Hz]"	"[dB] Directivity Index "	"Frequency [Hz]"	"[dB] Directivity Index "
20.5078	3.46961	20.5078	1.89075
21.9727	3.00796	21.9727	1.91191
23.4375	1.51028	23.4375	1.87914
24.9023	-1.33156	24.9023	0.98036
26.3672	-1.32656	26.3672	0.808749
27.832	-1.62877	27.832	0.583532
29.2969	-2.02992	29.2969	0.254646
30.7617	-1.72474	30.7617	0.224629
32.2266	-2.10216	32.2266	-0.01794
33.6914	-2.1826	33.6914	-0.207482
35.1563	-2.07332	35.1563	-0.263226
36.6211	-2.00814	36.6211	-0.320655
38.0859	-2.03269	38.0859	-0.396083
39.5508	-1.96572	39.5508	-0.43918
41.0156	-1.79786	41.0156	-0.429269
42.4805	-1.71823	42.4805	-0.426166
43.9453	-1.66552	43.9453	-0.44501
45.4102	-1.60961	45.4102	-0.455572
46.875	-1.44753	46.875	-0.406789
48.3398	-1.56509	48.3398	-0.478323
51.2695	-1.39751	51.2695	-0.445883
52.7344	-1.336	52.7344	-0.435979
54.1992	-1.283	54.1992	-0.426748
55.6641	-1.23087	55.6641	-0.417765
58.5938	-1.12291	58.5938	-0.391985
60.0586	-1.07859	60.0586	-0.382175
62.9883	-0.984744	62.9883	-0.35831
64.4531	-0.948154	64.4531	-0.349835
67.3828	-0.887164	67.3828	-0.336254
68.8477	-0.857416	68.8477	-0.328934
71.7773	-0.810665	71.7773	-0.32119
74.707	-0.76338	74.707	-0.309088
77.6367	-0.72689	77.6367	-0.301214
79.1016	-0.669528	79.1016	-0.28173
82.0313	-0.544432	82.0313	-0.237757
84.9609	-0.503722	84.9609	-0.224025
87.8906	-0.511561	87.8906	-0.227698
90.8203	-0.795999	90.8203	-0.345475
95.2148	-0.224622	95.2148	-0.126173
98.1445	-0.341441	98.1445	-0.173164
101.074	-0.350201	101.074	-0.176375
105.469	-0.375304	105.469	-0.19058
108.398	-0.328185	108.398	-0.175977
112.793	-0.262235	112.793	-0.142359
117.188	-0.222807	117.188	-0.120657
120.117	-0.113024	120.117	-0.0780584
124.512	-0.0121066	124.512	-0.0534083
128.906	0.0360596	128.906	-0.040786
133.301	-0.103464	133.301	-0.0862649
139.16	-0.179637	139.16	-0.106332
143.555	-0.113375	143.555	-0.0692633
147.949	0.00414838	147.949	-0.0187683
153.809	0.207834	153.809	0.0553879
159.668	0.250042	159.668	0.068936
165.527	0.22604	165.527	0.0644856
171.387	0.212771	171.387	0.0619862
177.246	0.202904	177.246	0.0630429
183.105	0.276893	183.105	0.11404
188.965	0.470628	188.965	0.186055
196.289	0.500149	196.289	0.186389
203.613	0.57059	203.613	0.225762
210.938	0.642451	210.938	0.250635
218.262	0.686956	218.262	0.261553
225.586	0.658064	225.586	0.271225
232.91	0.867435	232.91	0.358829
241.699	0.946935	241.699	0.382468
250.488	1.09188	250.488	0.445415
259.277	1.05729	259.277	0.400897
268.066	0.983429	268.066	0.413903
276.855	1.2709	276.855	0.516609
287.109	1.29692	287.109	0.504902
297.363	1.33761	297.363	0.542461
307.617	1.11031	307.617	0.447945
319.336	1.31345	319.336	0.521358
329.59	1.38583	329.59	0.547242
341.309	1.14287	341.309	0.444794
353.027	1.3025	353.027	0.591691
366.211	1.35285	366.211	0.893365
379.395	2.17137	379.395	1.12243
392.578	2.02249	392.578	0.900033
405.762	2.04458	405.762	0.92915
420.41	2.5158	420.41	0.993436
435.059	2.02445	435.059	0.774943
451.172	2.49396	451.172	1.01012
465.82	2.59641	465.82	0.935658
483.398	2.2583	483.398	0.764448
499.512	2.32422	499.512	0.778453
517.09	2.2723	517.09	0.823455
536.133	2.33834	536.133	0.933863
555.176	2.9883	555.176	1.08117
574.219	2.75598	574.219	0.909928
594.727	2.81849	594.727	1.00203
615.234	3.09912	615.234	1.10895
637.207	2.86624	637.207	0.900633
659.18	3.43473	659.18	1.28039
682.617	3.66271	682.617	1.58025
707.52	4.06603	707.52	1.68026
732.422	4.00243	732.422	1.66044
757.324	3.85297	757.324	1.61538
785.156	4.18166	785.156	1.74102
811.523	4.23149	811.523	1.83563
840.82	4.59298	840.82	2.08918
870.117	4.65456	870.117	2.05965
900.879	5.05143	900.879	2.18885
933.105	5.00364	933.105	2.12166
965.332	5.05372	965.332	2.13025
1,000.49	5.44765	1,000.49	2.29059
1,035.64	5.38248	1,035.64	2.24401
1,072.27	5.33313	1,072.27	2.2775
1,108.89	4.80184	1,108.89	2.09402
1,148.44	4.14825	1,148.44	1.7319
1,189.45	5.062	1,189.45	2.10755
1,230.47	5.55955	1,230.47	2.25852
1,274.41	6.29436	1,274.41	2.77357
1,319.82	6.34428	1,319.82	2.9344
1,366.7	6.44541	1,366.7	2.87438
1,413.57	6.59209	1,413.57	2.92458
1,463.38	6.73359	1,463.38	3.00364
1,516.11	6.97412	1,516.11	3.10198
1,568.85	7.19676	1,568.85	3.13312
1,624.51	7.21791	1,624.51	3.24376
1,681.64	7.21235	1,681.64	3.29501
1,741.7	7.42383	1,741.7	3.36746
1,803.22	7.66567	1,803.22	3.39093
1,866.21	7.57575	1,866.21	3.40298
1,932.13	7.62478	1,932.13	3.48265
1,999.51	7.73616	1,999.51	3.50129
2,069.82	7.94328	2,069.82	3.51802
2,143.07	7.7905	2,143.07	3.63819
2,219.24	7.79391	2,219.24	3.80501
2,296.88	7.36759	2,296.88	3.4421
2,378.91	7.53076	2,378.91	3.51561
2,462.4	7.27689	2,462.4	3.38556
2,548.83	6.68421	2,548.83	3.11963
2,639.65	6.21172	2,639.65	2.88424
2,731.93	6.02893	2,731.93	2.60519
2,828.61	5.63315	2,828.61	2.31512
2,928.22	5.59885	2,928.22	2.23441
3,030.76	5.80423	3,030.76	2.41945
3,137.7	6.25788	3,137.7	2.73727
3,249.02	6.10999	3,249.02	2.69515
3,363.28	5.91648	3,363.28	2.59362
3,481.93	5.81495	3,481.93	2.49812
3,604.98	5.75642	3,604.98	2.37
3,732.42	5.61138	3,732.42	2.24646
3,864.26	5.61973	3,864.26	2.16345
4,000.49	5.61368	4,000.49	2.05431
4,141.11	5.79373	4,141.11	2.10195
4,287.6	5.57082	4,287.6	1.99443
4,438.48	5.82184	4,438.48	2.07672
4,595.21	5.61277	4,595.21	1.86533
4,756.35	5.83362	4,756.35	1.86444
4,924.8	5.84062	4,924.8	1.91904
5,097.66	5.81056	5,097.66	2.05208
5,277.83	5.62269	5,277.83	1.94908
5,463.87	5.25328	5,463.87	1.63359
5,657.23	5.56148	5,657.23	1.85205
5,856.45	5.5862	5,856.45	1.9048
6,062.99	5.48257	6,062.99	1.76397
6,276.86	5.61839	6,276.86	1.85215
6,498.05	5.93344	6,498.05	2.15134
6,726.56	6.02111	6,726.56	2.14702
6,963.87	5.98893	6,963.87	2.08955
7,209.96	6.13703	7,209.96	2.14657
7,464.84	6.17915	7,464.84	2.19938
7,727.05	6.40878	7,727.05	2.39312
7,999.51	6.94688	7,999.51	2.79358
8,282.23	7.24134	8,282.23	2.93587
8,573.73	7.6718	8,573.73	3.19447
8,876.95	7.87454	8,876.95	3.31445
9,188.96	8.05274	9,188.96	3.44384
9,514.16	8.14373	9,514.16	3.51754
9,849.61	8.30671	9,849.61	3.64519
10,196.8	8.4668	10,196.8	3.70499
10,555.7	8.77067	10,555.7	3.81504
10,927.7	8.91175	10,927.7	3.8761
11,313	8.98984	11,313	3.93885
11,712.9	9.10843	11,712.9	4.05157
12,126	9.33629	12,126	4.14836
12,553.7	9.52479	12,553.7	4.20644
12,996.1	9.6543	12,996.1	4.2769
13,454.6	9.80525	13,454.6	4.41735
13,929.2	9.91731	13,929.2	4.47095
14,419.9	10.0959	14,419.9	4.50996
14,928.2	10.2409	14,928.2	4.56159
15,455.6	10.3302	15,455.6	4.64935
16,000.5	10.3776	16,000.5	4.69153
16,564.5	10.3355	16,564.5	4.71554
17,148.9	10.1134	17,148.9	4.61619
17,752.4	9.96296	17,752.4	4.64282
18,379.4	10.0139	18,379.4	4.69842
19,026.9	10.1587	19,026.9	4.76357
19,697.8	10.5205	19,697.8	4.86066
19,999.5	10.5589	19,999.5	4.83669
