"Directivity Index"			
"Sound Power DI"		"Early Reflections DI"	
"Frequency [Hz]"	"[dB] Directivity Index "	"Frequency [Hz]"	"[dB] Directivity Index "
20.5078	-5.4346	20.5078	-1.96231
23.4375	-4.1273	23.4375	-1.29113
26.3672	-3.41525	26.3672	-1.09129
29.2969	-2.7318	29.2969	-0.841232
32.2266	-2.23603	32.2266	-0.708094
35.1563	-1.71239	35.1563	-0.527158
38.0859	-1.40488	38.0859	-0.438188
41.0156	-1.111	41.0156	-0.344931
43.9453	-0.894942	43.9453	-0.274973
46.875	-0.763629	46.875	-0.236548
49.8047	-0.636918	49.8047	-0.197463
52.7344	-0.558123	52.7344	-0.175009
55.6641	-0.484609	55.6641	-0.152495
58.5938	-0.431216	58.5938	-0.137428
61.5234	-0.375823	61.5234	-0.120122
64.4531	-0.304571	64.4531	-0.0952704
67.3828	-0.24747	67.3828	-0.0750934
70.3125	-0.249849	70.3125	-0.0763926
73.2422	-0.255295	73.2422	-0.0813967
76.1719	-0.210645	76.1719	-0.0648111
79.1016	-0.246632	79.1016	-0.0793979
82.0313	-0.130844	82.0313	-0.0360834
84.9609	0.122428	84.9609	0.0591634
87.8906	-0.0436487	87.8906	-0.00527447
90.8203	-0.381803	90.8203	-0.135535
93.75	-0.092942	93.75	-0.0184216
96.6797	0.141623	96.6797	0.0652537
102.539	0.0251088	102.539	0.0243901
105.469	0.010989	105.469	0.0216431
108.398	0.0162704	108.398	0.0245932
111.328	0.0652497	111.328	0.0451281
117.188	0.151488	117.188	0.0807621
120.117	0.207552	120.117	0.105537
125.977	0.308564	125.977	0.143319
128.906	0.362625	128.906	0.15672
134.766	0.184392	134.766	0.0995068
137.695	0.172394	137.695	0.0990164
143.555	0.196824	143.555	0.117168
149.414	0.437056	149.414	0.223015
155.273	0.580458	155.273	0.268161
158.203	0.541539	158.203	0.252589
164.063	0.420982	164.063	0.211993
169.922	0.547256	169.922	0.275019
175.781	0.592369	175.781	0.295124
181.641	0.611515	181.641	0.31242
190.43	0.663755	190.43	0.330477
196.289	0.686452	196.289	0.353782
202.148	0.856652	202.148	0.429556
210.938	1.0189	210.938	0.490945
216.797	0.964807	216.797	0.476431
225.586	1.18145	225.586	0.571665
234.375	1.30667	234.375	0.607826
240.234	1.29873	240.234	0.618583
249.023	1.59948	249.023	0.721719
257.813	1.48703	257.813	0.663533
266.602	1.62072	266.602	0.742017
278.32	1.643	278.32	0.786042
287.109	1.89927	287.109	0.8644
295.898	2.15188	295.898	0.940306
307.617	2.01957	307.617	0.867839
319.336	2.27658	319.336	0.992066
331.055	2.2961	331.055	0.995609
342.773	2.24957	342.773	1.04655
354.492	2.80324	354.492	1.17129
366.211	2.91222	366.211	1.13565
377.93	2.80417	377.93	1.0669
392.578	2.80298	392.578	1.07669
407.227	2.81839	407.227	1.1579
421.875	3.04746	421.875	1.17863
436.523	2.92889	436.523	1.25848
451.172	3.56398	451.172	1.42008
465.82	3.47132	465.82	1.3517
483.398	3.64009	483.398	1.34747
500.977	3.53812	500.977	1.26427
518.555	3.67118	518.555	1.34522
536.133	3.80806	536.133	1.44868
553.711	4.09013	553.711	1.51532
574.219	3.97482	574.219	1.44793
594.727	4.01148	594.727	1.49541
615.234	4.05982	615.234	1.50306
638.672	4.23323	638.672	1.60632
659.18	4.3865	659.18	1.66392
682.617	4.34499	682.617	1.74822
706.055	4.63557	706.055	1.92872
732.422	4.15903	732.422	1.70372
758.789	3.99898	758.789	1.62007
785.156	3.92917	785.156	1.5151
811.523	4.1507	811.523	1.73068
840.82	4.11556	840.82	1.71951
870.117	4.14611	870.117	1.83171
902.344	4.50331	902.344	1.85582
931.641	4.53023	931.641	1.81842
966.797	4.95985	966.797	1.96575
999.023	4.86026	999.023	1.9067
1,034.18	5.08017	1,034.18	1.83599
1,072.27	5.25955	1,072.27	1.85607
1,110.35	5.56403	1,110.35	1.98959
1,148.44	5.51053	1,148.44	1.95422
1,189.45	6.2985	1,189.45	2.37585
1,230.47	6.91712	1,230.47	2.63892
1,274.41	7.59026	1,274.41	3.02217
1,318.36	7.88198	1,318.36	3.28531
1,365.23	8.14611	1,365.23	3.6128
1,415.04	8.13356	1,415.04	3.77302
1,464.84	8.0703	1,464.84	3.79793
1,514.65	7.73094	1,514.65	3.73678
1,570.31	7.50644	1,570.31	3.78312
1,623.05	7.3309	1,623.05	3.84482
1,681.64	6.93207	1,681.64	3.62015
1,740.23	7.03304	1,740.23	3.47807
1,801.76	7.07369	1,801.76	3.44786
1,866.21	6.51662	1,866.21	3.12325
1,930.66	5.84878	1,930.66	2.62613
2,000.98	6.15049	2,000.98	2.73221
2,071.29	6.4264	2,071.29	2.92953
2,144.53	6.12437	2,144.53	2.7261
2,217.77	5.4828	2,217.77	2.25589
2,296.88	5.93523	2,296.88	2.46676
2,378.91	6.36323	2,378.91	2.7426
2,460.94	6.22343	2,460.94	2.59233
2,548.83	6.00873	2,548.83	2.35265
2,639.65	6.05168	2,639.65	2.37459
2,733.4	5.89821	2,733.4	2.30275
2,827.15	6.05645	2,827.15	2.37816
2,926.76	6.19028	2,926.76	2.42854
3,032.23	6.35364	3,032.23	2.55617
3,137.7	6.65512	3,137.7	2.71279
3,249.02	6.76832	3,249.02	2.6789
3,363.28	6.87604	3,363.28	2.70251
3,483.4	7.08625	3,483.4	2.808
3,606.45	7.07419	3,606.45	2.80492
3,732.42	6.9546	3,732.42	2.69215
3,864.26	7.20823	3,864.26	2.7992
3,999.02	7.29329	3,999.02	2.8226
4,139.65	7.24461	4,139.65	2.84481
4,286.13	7.62306	4,286.13	2.99251
4,438.48	7.69322	4,438.48	3.06744
4,593.75	7.78813	4,593.75	3.1283
4,757.81	7.59494	4,757.81	3.01172
4,924.8	7.52903	4,924.8	2.95433
5,097.66	7.51393	5,097.66	2.95619
5,279.3	7.38924	5,279.3	2.91581
5,463.87	7.75845	5,463.87	3.14985
5,657.23	7.64778	5,657.23	3.13527
5,856.45	7.82596	5,856.45	3.27963
6,061.52	8.05026	6,061.52	3.41751
6,275.39	8.11992	6,275.39	3.4559
6,498.05	7.94672	6,498.05	3.37423
6,726.56	7.90632	6,726.56	3.30284
6,963.87	7.89713	6,963.87	3.22452
7,209.96	8.04009	7,209.96	3.25872
7,464.84	8.11956	7,464.84	3.30905
7,728.52	8.18068	7,728.52	3.35008
8,000.98	8.36426	8,000.98	3.42649
8,282.23	8.68899	8,282.23	3.59867
8,575.2	8.95809	8,575.2	3.7685
8,876.95	9.05065	8,876.95	3.8652
9,190.43	8.9542	9,190.43	3.84469
9,512.7	8.86514	9,512.7	3.78902
9,849.61	9.05463	9,849.61	3.89269
10,195.3	9.0742	10,195.3	3.80269
10,555.7	9.04122	10,555.7	3.80249
10,927.7	9.23498	10,927.7	3.96937
11,314.5	9.28951	11,314.5	4.07574
11,712.9	9.11586	11,712.9	4.06093
12,126	9.1094	12,126	4.03717
12,553.7	9.12363	12,553.7	3.99054
12,996.1	9.02594	12,996.1	3.98327
13,453.1	8.75806	13,453.1	3.91822
13,927.7	8.29352	13,927.7	3.74963
14,419.9	7.726	14,419.9	3.525
14,929.7	7.18472	14,929.7	3.30388
15,454.1	6.37355	15,454.1	2.81725
15,999	9.55066	15,999	4.56269
16,564.5	9.53034	16,564.5	4.49562
17,147.5	9.2369	17,147.5	4.39568
17,753.9	10.8118	17,753.9	4.99311
18,377.9	9.82198	18,377.9	4.38041
19,028.3	10.4034	19,028.3	4.74214
19,699.2	8.16697	19,699.2	3.49859
19,998	10.9476	19,998	4.89955
