"Directivity Index"			
"Sound Power DI"		"Early Reflections DI"	
"Frequency [Hz]"	"[dB] Directivity Index "	"Frequency [Hz]"	"[dB] Directivity Index "
20.5078	-4.49536	20.5078	-1.43491
21.9727	-3.75227	21.9727	-0.872562
23.4375	-4.2953	23.4375	-1.36054
24.9023	-4.09355	24.9023	-1.28392
26.3672	-3.32215	26.3672	-0.92282
27.832	-3.47836	27.832	-1.06682
29.2969	-2.81901	29.2969	-0.786422
30.7617	-2.83238	30.7617	-0.847414
32.2266	-2.55075	32.2266	-0.75693
33.6914	-2.40415	33.6914	-0.727792
35.1563	-2.21292	35.1563	-0.671131
36.6211	-2.06722	36.6211	-0.63401
38.0859	-1.92539	38.0859	-0.594922
39.5508	-1.84281	39.5508	-0.579476
41.0156	-1.725	41.0156	-0.551459
42.4805	-1.61364	42.4805	-0.518472
43.9453	-1.51746	43.9453	-0.49115
45.4102	-1.43025	45.4102	-0.467219
46.875	-1.34175	46.875	-0.447652
48.3398	-1.32201	48.3398	-0.450361
51.2695	-1.1741	51.2695	-0.406062
52.7344	-1.16574	52.7344	-0.411976
54.1992	-1.09965	54.1992	-0.393384
55.6641	-1.01078	55.6641	-0.363808
58.5938	-0.888388	58.5938	-0.32233
60.0586	-0.850783	60.0586	-0.311548
62.9883	-0.814802	62.9883	-0.305368
64.4531	-0.798366	64.4531	-0.302514
67.3828	-0.7542	67.3828	-0.291361
68.8477	-0.735691	68.8477	-0.286802
71.7773	-0.663555	71.7773	-0.263209
74.707	-0.545298	74.707	-0.221773
77.6367	-0.523423	77.6367	-0.219035
79.1016	-0.499402	79.1016	-0.210992
82.0313	-0.45281	82.0313	-0.194278
84.9609	-0.428738	84.9609	-0.185877
87.8906	-0.369462	87.8906	-0.16389
90.8203	-0.343303	90.8203	-0.155878
95.2148	-0.203004	95.2148	-0.104258
98.1445	-0.213596	98.1445	-0.107808
101.074	-0.205381	101.074	-0.105151
105.469	-0.0874649	105.469	-0.0583897
108.398	-0.0476804	108.398	-0.0417028
112.793	-0.0456594	112.793	-0.0447367
117.188	0.0603102	117.188	0.00389993
120.117	0.067655	120.117	0.00944853
124.512	0.0490089	124.512	0.00579794
128.906	0.0901421	128.906	0.0239074
133.301	0.109282	133.301	0.0353126
139.16	0.17435	139.16	0.0675121
143.555	0.259141	143.555	0.106633
147.949	0.346245	147.949	0.14452
153.809	0.473751	153.809	0.19309
159.668	0.504249	159.668	0.203681
165.527	0.466517	165.527	0.192204
171.387	0.526787	171.387	0.218923
177.246	0.5407	177.246	0.222302
183.105	0.643619	183.105	0.292105
188.965	0.886617	188.965	0.375879
196.289	0.865175	196.289	0.358383
203.613	0.957454	203.613	0.405964
210.938	1.11681	210.938	0.462444
218.262	1.15877	218.262	0.468203
225.586	1.14601	225.586	0.482928
232.91	1.37105	232.91	0.553904
241.699	1.30481	241.699	0.511317
250.488	1.60329	250.488	0.648232
259.277	1.60532	259.277	0.579898
268.066	1.23184	268.066	0.501728
276.855	1.72155	276.855	0.664475
287.109	1.62866	287.109	0.583355
297.363	1.63124	297.363	0.667558
307.617	1.85128	307.617	0.662971
319.336	1.57947	319.336	0.618569
329.59	1.80519	329.59	0.734682
341.309	1.53553	341.309	0.712961
353.027	2.41881	353.027	1.24698
366.211	2.7917	366.211	1.32328
379.395	2.99861	379.395	1.31084
392.578	2.59054	392.578	1.09212
405.762	2.72299	405.762	1.31889
420.41	3.41795	420.41	1.49908
435.059	3.39853	435.059	1.54306
451.172	3.98976	451.172	1.672
465.82	3.13316	465.82	1.06161
483.398	2.49288	483.398	0.759457
499.512	3.39752	499.512	1.34837
517.09	3.27549	517.09	1.13316
536.133	3.75223	536.133	1.49842
555.176	3.74222	555.176	1.21063
574.219	3.02933	574.219	0.880738
594.727	3.74091	594.727	1.49393
615.234	4.36346	615.234	1.8009
637.207	4.04108	637.207	1.71692
659.18	4.67821	659.18	2.05429
682.617	4.51108	682.617	1.91707
707.52	4.24842	707.52	1.698
732.422	4.37179	732.422	1.74626
757.324	4.48891	757.324	1.80832
785.156	4.93089	785.156	1.97362
811.523	4.99513	811.523	2.018
840.82	5.32504	840.82	2.23408
870.117	5.4651	870.117	2.27267
900.879	5.79388	900.879	2.42468
933.105	6.01424	933.105	2.50489
965.332	6.2026	965.332	2.62361
1,000.49	6.40433	1,000.49	2.7174
1,035.64	6.58104	1,035.64	2.93903
1,072.27	6.56124	1,072.27	2.95433
1,108.89	6.34354	1,108.89	2.80306
1,148.44	6.08029	1,148.44	2.78787
1,189.45	5.83179	1,189.45	2.80939
1,230.47	5.77195	1,230.47	2.75569
1,274.41	5.96266	1,274.41	2.89617
1,319.82	5.98281	1,319.82	3.03523
1,366.7	5.7185	1,366.7	2.95463
1,413.57	5.26786	1,413.57	2.77486
1,463.38	5.90799	1,463.38	3.20695
1,516.11	6.29218	1,516.11	3.18252
1,568.85	5.85917	1,568.85	2.98186
1,624.51	5.30463	1,624.51	3.03267
1,681.64	5.64537	1,681.64	2.96587
1,741.7	5.54564	1,741.7	2.59951
1,803.22	4.96228	1,803.22	2.48957
1,866.21	4.55186	1,866.21	2.08323
1,932.13	4.45507	1,932.13	1.78286
1,999.51	4.45305	1,999.51	1.75501
2,069.82	4.19362	2,069.82	1.6223
2,143.07	3.42085	2,143.07	1.06737
2,219.24	4.02227	2,219.24	1.48885
2,296.88	3.88208	2,296.88	1.25955
2,378.91	3.21095	2,378.91	0.993706
2,462.4	3.70143	2,462.4	1.17153
2,548.83	3.63498	2,548.83	1.13378
2,639.65	3.97769	2,639.65	1.39057
2,731.93	4.40313	2,731.93	1.71224
2,828.61	4.54523	2,828.61	1.68364
2,928.22	4.95594	2,928.22	1.79808
3,030.76	5.20216	3,030.76	1.78981
3,137.7	5.40732	3,137.7	1.92996
3,249.02	5.82507	3,249.02	2.08549
3,363.28	6.03105	3,363.28	2.28277
3,481.93	6.04938	3,481.93	2.4411
3,604.98	6.20289	3,604.98	2.62527
3,732.42	6.10847	3,732.42	2.60868
3,864.26	6.46333	3,864.26	2.73208
4,000.49	6.74705	4,000.49	2.72413
4,141.11	7.04686	4,141.11	2.80075
4,287.6	7.218	4,287.6	2.8325
4,438.48	7.31488	4,438.48	2.83544
4,595.21	7.67469	4,595.21	2.97741
4,756.35	7.80868	4,756.35	3.01707
4,924.8	7.93161	4,924.8	2.99225
5,097.66	8.26833	5,097.66	3.14052
5,277.83	8.35247	5,277.83	3.10915
5,463.87	8.22678	5,463.87	2.96903
5,657.23	8.26397	5,657.23	2.92848
5,856.45	8.39071	5,856.45	2.94594
6,062.99	8.36884	6,062.99	2.90694
6,276.86	8.42831	6,276.86	2.98016
6,498.05	8.40996	6,498.05	3.06173
6,726.56	8.22796	6,726.56	3.05767
6,963.87	8.00156	6,963.87	3.00494
7,209.96	7.80549	7,209.96	2.97059
7,464.84	7.63395	7,464.84	2.93238
7,727.05	7.68384	7,727.05	2.99548
7,999.51	7.88735	7,999.51	3.13029
8,282.23	8.09087	8,282.23	3.23715
8,573.73	8.3185	8,573.73	3.36857
8,876.95	8.45793	8,876.95	3.47559
9,188.96	8.71002	9,188.96	3.59919
9,514.16	8.85573	9,514.16	3.63921
9,849.61	8.9052	9,849.61	3.65026
10,196.8	8.97407	10,196.8	3.68341
10,555.7	9.15782	10,555.7	3.79958
10,927.7	9.61003	10,927.7	4.0867
11,313	10.0203	11,313	4.34178
11,712.9	10.2539	11,712.9	4.47386
12,126	10.4887	12,126	4.61213
12,553.7	10.4626	12,553.7	4.61313
12,996.1	10.2022	12,996.1	4.49522
13,454.6	10.2215	13,454.6	4.56267
13,929.2	10.4047	13,929.2	4.6827
14,419.9	10.5868	14,419.9	4.78345
14,928.2	10.8302	14,928.2	4.88389
15,455.6	11.0362	15,455.6	4.95724
16,000.5	11.2506	16,000.5	5.04353
16,564.5	11.4412	16,564.5	5.12474
17,148.9	11.6461	17,148.9	5.19968
17,752.4	11.8916	17,752.4	5.27187
18,379.4	12.0952	18,379.4	5.32847
19,026.9	12.2394	19,026.9	5.35496
19,697.8	12.3195	19,697.8	5.34059
19,999.5	12.3391	19,999.5	5.30504
