"Directivity Index"			
"Sound Power DI"		"Early Reflections DI"	
"Frequency [Hz]"	"[dB] Directivity Index "	"Frequency [Hz]"	"[dB] Directivity Index "
20.5078	-3.86026	20.5078	-1.65416
23.4375	0.845215	23.4375	0.552026
26.3672	-1.95675	26.3672	-0.5538
29.2969	-0.418566	29.2969	0.323246
32.2266	-0.50304	32.2266	0.126688
35.1563	-0.2792	35.1563	0.189929
38.0859	0.13184	38.0859	0.281029
41.0156	0.518881	41.0156	0.450481
43.9453	0.357258	43.9453	0.307634
46.875	0.602528	46.875	0.381236
49.8047	0.694048	49.8047	0.389978
52.7344	0.758219	52.7344	0.396183
55.6641	0.780758	55.6641	0.387043
58.5938	0.817009	58.5938	0.388399
61.5234	0.839047	61.5234	0.386925
64.4531	0.841751	64.4531	0.379038
67.3828	0.829748	67.3828	0.366246
70.3125	0.763103	70.3125	0.334715
73.2422	0.718884	73.2422	0.310945
76.1719	0.71207	76.1719	0.302996
79.1016	0.672607	79.1016	0.283124
82.0313	0.679518	82.0313	0.27942
84.9609	0.648838	84.9609	0.264422
87.8906	0.569675	87.8906	0.234121
90.8203	0.392549	90.8203	0.163583
93.75	0.455198	93.75	0.178281
96.6797	0.544295	96.6797	0.209809
102.539	0.357956	102.539	0.136438
105.469	0.345841	105.469	0.127779
108.398	0.31877	108.398	0.11517
111.328	0.294651	111.328	0.103855
117.188	0.24872	117.188	0.082963
120.117	0.249263	120.117	0.0805299
125.977	0.200625	125.977	0.0583846
128.906	0.152935	128.906	0.0381968
134.766	0.0880075	134.766	0.0125294
137.695	0.0879436	137.695	0.0131496
143.555	0.105597	143.555	0.0177137
149.414	0.106097	149.414	0.0167551
155.273	0.0624163	155.273	-0.00275732
158.203	0.0539982	158.203	-0.00522288
164.063	0.0230078	164.063	-0.0136397
169.922	-0.0113971	169.922	-0.0267678
175.781	0.0118013	175.781	-0.0153262
181.641	0.0501315	181.641	0.00141624
190.43	0.0667038	190.43	0.00496376
196.289	0.0731081	196.289	0.0119141
202.148	0.10423	202.148	0.0282346
210.938	0.101894	210.938	0.0280921
216.797	0.0914288	216.797	0.0242218
225.586	0.143895	225.586	0.0534888
234.375	0.200211	234.375	0.077904
240.234	0.203183	240.234	0.076904
249.023	0.310831	249.023	0.12923
257.813	0.230634	257.813	0.0916545
266.602	0.326837	266.602	0.135228
278.32	0.282729	278.32	0.159546
287.109	0.491786	287.109	0.217218
295.898	0.559878	295.898	0.250503
307.617	0.439353	307.617	0.204308
319.336	0.440612	319.336	0.211348
331.055	0.662405	331.055	0.314899
342.773	0.743174	342.773	0.351122
354.492	0.844948	354.492	0.381733
366.211	0.817732	366.211	0.355334
377.93	0.800355	377.93	0.376851
392.578	0.85587	392.578	0.414064
407.227	0.950005	407.227	0.483651
421.875	1.15877	421.875	0.584624
436.523	1.20654	436.523	0.615285
451.172	1.54981	451.172	0.721862
465.82	1.4517	465.82	0.686684
483.398	1.65372	483.398	0.753775
500.977	1.6784	500.977	0.758519
518.555	1.77251	518.555	0.800942
536.133	1.90709	536.133	0.831055
553.711	2.08754	553.711	0.887314
574.219	2.20169	574.219	0.878673
594.727	2.26654	594.727	0.825704
615.234	2.37001	615.234	0.85501
638.672	2.25557	638.672	0.772319
659.18	2.43691	659.18	0.813328
682.617	2.44082	682.617	0.831628
706.055	2.36983	706.055	0.74986
732.422	2.49529	732.422	0.825221
758.789	2.64296	758.789	0.89774
785.156	2.50505	785.156	0.729446
811.523	2.4069	811.523	0.662955
840.82	2.43965	840.82	0.665199
870.117	2.18041	870.117	0.558987
902.344	2.45141	902.344	0.699539
931.641	2.73534	931.641	0.845731
966.797	2.80438	966.797	0.871205
999.023	2.59578	999.023	0.715949
1,034.18	2.80469	1,034.18	0.928152
1,072.27	3.1582	1,072.27	1.10562
1,110.35	3.48277	1,110.35	1.16759
1,148.44	3.5887	1,148.44	1.24506
1,189.45	4.20131	1,189.45	1.58565
1,230.47	4.35798	1,230.47	1.70882
1,274.41	4.4409	1,274.41	1.78289
1,318.36	4.47979	1,318.36	1.81775
1,365.23	4.53089	1,365.23	1.86839
1,415.04	4.78843	1,415.04	2.06602
1,464.84	5.05379	1,464.84	2.17145
1,514.65	5.39507	1,514.65	2.29634
1,570.31	5.50665	1,570.31	2.32216
1,623.05	5.3945	1,623.05	2.33508
1,681.64	5.13484	1,681.64	2.21997
1,740.23	5.16998	1,740.23	2.31116
1,801.76	5.36937	1,801.76	2.518
1,866.21	4.93267	1,866.21	2.30261
1,930.66	4.0069	1,930.66	1.82482
2,000.98	3.58752	2,000.98	1.57657
2,071.29	3.42052	2,071.29	1.6575
2,144.53	2.90057	2,144.53	1.34216
2,217.77	2.77284	2,217.77	1.25553
2,296.88	1.75911	2,296.88	0.769992
2,378.91	2.16766	2,378.91	0.806589
2,460.94	2.81143	2,460.94	1.01887
2,548.83	2.55439	2,548.83	0.852412
2,639.65	3.02425	2,639.65	0.887022
2,733.4	3.01204	2,733.4	1.03766
2,827.15	3.31488	2,827.15	1.25236
2,926.76	3.63039	2,926.76	1.39952
3,032.23	3.9642	3,032.23	1.46263
3,137.7	4.30889	3,137.7	1.75556
3,249.02	3.80027	3,249.02	1.55121
3,363.28	3.6201	3,363.28	1.29433
3,483.4	4.15961	3,483.4	1.42484
3,606.45	4.537	3,606.45	1.6416
3,732.42	4.5404	3,732.42	1.51648
3,864.26	4.81473	3,864.26	1.73527
3,999.02	4.68151	3,999.02	1.76839
4,139.65	4.7406	4,139.65	1.68539
4,286.13	4.777	4,286.13	1.84093
4,438.48	4.50083	4,438.48	1.92211
4,593.75	4.17927	4,593.75	1.78612
4,757.81	3.55172	4,757.81	1.13904
4,924.8	3.31534	4,924.8	1.18864
5,097.66	3.4283	5,097.66	1.13827
5,279.3	3.00941	5,279.3	0.922386
5,463.87	3.61032	5,463.87	1.17972
5,657.23	3.11019	5,657.23	0.777827
5,856.45	3.22335	5,856.45	0.879953
6,061.52	3.85544	6,061.52	1.39375
6,275.39	4.0032	6,275.39	1.44678
6,498.05	3.77212	6,498.05	1.23447
6,726.56	4.13937	6,726.56	1.50029
6,963.87	4.53126	6,963.87	1.61805
7,209.96	4.73663	7,209.96	1.71388
7,464.84	5.11201	7,464.84	1.93868
7,728.52	5.58146	7,728.52	2.12667
8,000.98	6.05669	8,000.98	2.36269
8,282.23	6.44105	8,282.23	2.44829
8,575.2	6.61616	8,575.2	2.54798
8,876.95	6.6936	8,876.95	2.64123
9,190.43	6.68587	9,190.43	2.73103
9,512.7	6.92938	9,512.7	3.00302
9,849.61	7.19672	9,849.61	3.15682
10,195.3	7.54561	10,195.3	3.40068
10,555.7	7.72557	10,555.7	3.4536
10,927.7	7.93504	10,927.7	3.53815
11,314.5	8.26888	11,314.5	3.68689
11,712.9	8.48565	11,712.9	3.76759
12,126	8.70277	12,126	3.82247
12,553.7	8.79615	12,553.7	3.79843
12,996.1	8.89945	12,996.1	3.84001
13,453.1	9.05281	13,453.1	3.93438
13,927.7	8.93503	13,927.7	3.90256
14,419.9	8.71216	14,419.9	3.80644
14,929.7	8.67555	14,929.7	3.76839
15,454.1	8.79042	15,454.1	3.84491
15,999	8.91255	15,999	3.90658
16,564.5	9.10998	16,564.5	4.02652
17,147.5	9.43526	17,147.5	4.1943
17,753.9	9.70119	17,753.9	4.28615
18,377.9	9.87827	18,377.9	4.37029
19,028.3	10.1211	19,028.3	4.52565
19,699.2	10.4602	19,699.2	4.7127
19,998	10.6665	19,998	4.82542
