"Directivity Index"			
"Sound Power DI"		"Early Reflections DI"	
"Frequency [Hz]"	"[dB] Directivity Index "	"Frequency [Hz]"	"[dB] Directivity Index "
20.5078	-5.74609	20.5078	-2.00948
21.9727	-3.32071	21.9727	-1.1391
23.4375	-1.75308	23.4375	-0.434263
24.9023	-2.04546	24.9023	-0.52335
26.3672	-2.56142	26.3672	-0.742913
27.832	-1.76792	27.832	-0.488205
29.2969	-1.30315	29.2969	-0.33448
30.7617	-1.11658	30.7617	-0.277404
32.2266	-0.975503	32.2266	-0.237113
33.6914	-0.813869	33.6914	-0.189634
35.1563	-0.68261	35.1563	-0.154783
36.6211	-0.603224	36.6211	-0.131061
38.0859	-0.507126	38.0859	-0.105203
39.5508	-0.424321	39.5508	-0.0829232
41.0156	-0.392694	41.0156	-0.0650361
42.4805	-0.246978	42.4805	-0.0327524
43.9453	-0.219261	43.9453	-0.0271404
45.4102	-0.184722	45.4102	-0.0176478
46.875	-0.13585	46.875	-0.00242658
48.3398	-0.0846088	48.3398	0.0133811
51.2695	-0.0305872	51.2695	0.0267002
52.7344	0.000462787	52.7344	0.0357335
54.1992	0.013693	54.1992	0.0376973
55.6641	0.0583523	55.6641	0.0532437
58.5938	0.0933502	58.5938	0.0633433
60.0586	0.123017	60.0586	0.0732904
62.9883	0.151594	62.9883	0.0807505
64.4531	0.168987	64.4531	0.0862393
67.3828	0.197307	67.3828	0.0953181
68.8477	0.210933	68.8477	0.100002
71.7773	0.247141	71.7773	0.112352
74.707	0.276636	74.707	0.121735
77.6367	0.288782	77.6367	0.125668
79.1016	0.297343	79.1016	0.129049
82.0313	0.319282	82.0313	0.137564
84.9609	0.334319	84.9609	0.143708
87.8906	0.365023	87.8906	0.155672
90.8203	0.383295	90.8203	0.162983
95.2148	0.420766	95.2148	0.178073
98.1445	0.442158	98.1445	0.186299
101.074	0.44905	101.074	0.189983
105.469	0.512065	105.469	0.219203
108.398	0.578542	108.398	0.240635
112.793	0.54327	112.793	0.228735
117.188	0.587566	117.188	0.249809
120.117	0.616007	120.117	0.261607
124.512	0.618122	124.512	0.264222
128.906	0.63642	128.906	0.275132
133.301	0.657362	133.301	0.285963
139.16	0.689793	139.16	0.303067
143.555	0.72571	143.555	0.321422
147.949	0.77652	147.949	0.344863
153.809	0.859505	153.809	0.379275
159.668	0.925321	159.668	0.399716
165.527	0.880585	165.527	0.392291
171.387	0.931964	171.387	0.418627
177.246	0.949494	177.246	0.431228
183.105	1.01326	183.105	0.466602
188.965	1.15152	188.965	0.519908
196.289	1.18164	196.289	0.525289
203.613	1.2992	203.613	0.584291
210.938	1.3818	210.938	0.613682
218.262	1.44236	218.262	0.627156
225.586	1.46933	225.586	0.664592
232.91	1.71986	232.91	0.735845
241.699	1.70209	241.699	0.702316
250.488	1.67345	250.488	0.714957
259.277	1.64319	259.277	0.710507
268.066	1.59529	268.066	0.715597
276.855	1.7481	276.855	0.776452
287.109	1.91373	287.109	0.888826
297.363	2.11548	297.363	0.970927
307.617	2.1646	307.617	0.924716
319.336	2.24658	319.336	0.982111
329.59	2.52398	329.59	1.05602
341.309	2.25053	341.309	0.969083
353.027	2.60963	353.027	1.14544
366.211	2.82472	366.211	1.14844
379.395	2.89354	379.395	1.13105
392.578	2.62638	392.578	1.01345
405.762	2.80517	405.762	1.18005
420.41	3.21349	420.41	1.19793
435.059	2.76558	435.059	1.03042
451.172	2.9439	451.172	1.11959
465.82	2.91948	465.82	1.05287
483.398	2.76159	483.398	1.10868
499.512	3.21067	499.512	1.26969
517.09	3.34879	517.09	1.13782
536.133	2.96467	536.133	1.10232
555.176	3.27305	555.176	1.20908
574.219	3.54866	574.219	1.30353
594.727	3.28032	594.727	1.12751
615.234	3.43305	615.234	1.29884
637.207	3.26361	637.207	1.34907
659.18	4.19838	659.18	1.70825
682.617	3.93779	682.617	1.68246
707.52	4.68308	707.52	2.04627
732.422	4.97143	732.422	2.0929
757.324	5.08867	757.324	2.19148
785.156	5.41408	785.156	2.1956
811.523	5.08038	811.523	2.04132
840.82	4.85707	840.82	1.8707
870.117	4.27976	870.117	1.60612
900.879	4.24417	900.879	1.76912
933.105	4.33231	933.105	1.91053
965.332	4.83778	965.332	1.88854
1,000.49	4.62626	1,000.49	1.6845
1,035.64	4.49863	1,035.64	1.59807
1,072.27	4.80075	1,072.27	1.90983
1,108.89	4.80623	1,108.89	1.95272
1,148.44	4.94959	1,148.44	2.06016
1,189.45	5.47567	1,189.45	2.35274
1,230.47	5.43742	1,230.47	2.28363
1,274.41	5.38058	1,274.41	2.25924
1,319.82	5.61333	1,319.82	2.37721
1,366.7	5.64423	1,366.7	2.47552
1,413.57	5.72983	1,413.57	2.65834
1,463.38	6.22688	1,463.38	2.79596
1,516.11	6.5538	1,516.11	2.89264
1,568.85	6.53756	1,568.85	2.8338
1,624.51	6.07712	1,624.51	2.47179
1,681.64	5.82212	1,681.64	2.27339
1,741.7	6.1968	1,741.7	2.48472
1,803.22	6.3643	1,803.22	2.69787
1,866.21	6.18412	1,866.21	2.84181
1,932.13	6.54321	1,932.13	3.05772
1,999.51	7.22994	1,999.51	3.47861
2,069.82	7.25521	2,069.82	3.40493
2,143.07	7.58521	2,143.07	3.37378
2,219.24	7.98332	2,219.24	3.69512
2,296.88	6.75006	2,296.88	3.24763
2,378.91	6.06149	2,378.91	2.77807
2,462.4	5.35807	2,462.4	2.38369
2,548.83	3.70009	2,548.83	1.14234
2,639.65	4.11638	2,639.65	1.31761
2,731.93	4.77706	2,731.93	1.69446
2,828.61	5.47848	2,828.61	2.08554
2,928.22	5.99387	2,928.22	2.36137
3,030.76	6.38308	3,030.76	2.59941
3,137.7	6.65546	3,137.7	2.75142
3,249.02	6.95522	3,249.02	2.94562
3,363.28	7.0049	3,363.28	3.06747
3,481.93	7.13386	3,481.93	3.19667
3,604.98	7.10513	3,604.98	3.25793
3,732.42	7.22141	3,732.42	3.24957
3,864.26	7.51908	3,864.26	3.29879
4,000.49	7.41476	4,000.49	3.28677
4,141.11	7.41199	4,141.11	3.19783
4,287.6	7.45778	4,287.6	3.15622
4,438.48	7.47668	4,438.48	3.14645
4,595.21	7.50691	4,595.21	3.18841
4,756.35	7.55985	4,756.35	3.11471
4,924.8	7.15308	4,924.8	2.8903
5,097.66	6.89595	5,097.66	2.76187
5,277.83	6.92041	5,277.83	2.81406
5,463.87	6.80923	5,463.87	2.78772
5,657.23	6.72924	5,657.23	2.73879
5,856.45	6.64392	5,856.45	2.64292
6,062.99	6.39841	6,062.99	2.50591
6,276.86	6.66676	6,276.86	2.62775
6,498.05	6.93416	6,498.05	2.7967
6,726.56	7.00276	6,726.56	2.86362
6,963.87	7.14343	6,963.87	2.93057
7,209.96	7.27627	7,209.96	2.93937
7,464.84	7.51215	7,464.84	3.01014
7,727.05	7.70734	7,727.05	3.06595
7,999.51	7.97384	7,999.51	3.26428
8,282.23	8.09166	8,282.23	3.42474
8,573.73	7.72263	8,573.73	3.18511
8,876.95	7.44106	8,876.95	2.997
9,188.96	7.92214	9,188.96	3.34215
9,514.16	8.1532	9,514.16	3.50955
9,849.61	8.36989	9,849.61	3.68476
10,196.8	8.15627	10,196.8	3.60161
10,555.7	7.67922	10,555.7	3.18344
10,927.7	8.95708	10,927.7	3.97043
11,313	9.35	11,313	4.23418
11,712.9	9.3467	11,712.9	4.28434
12,126	9.2729	12,126	4.23579
12,553.7	9.1337	12,553.7	3.9402
12,996.1	8.73053	12,996.1	3.46385
13,454.6	9.10074	13,454.6	3.94553
13,929.2	9.44745	13,929.2	4.46758
14,419.9	9.79389	14,419.9	4.59381
14,928.2	10.3926	14,928.2	4.77084
15,455.6	9.67994	15,455.6	4.21647
16,000.5	9.46753	16,000.5	4.315
16,564.5	10.1761	16,564.5	4.67929
17,148.9	10.5085	17,148.9	4.79661
17,752.4	11.0243	17,752.4	5.38501
18,379.4	11.4375	18,379.4	5.45441
19,026.9	11.8155	19,026.9	5.52152
19,697.8	12.0449	19,697.8	5.65387
19,999.5	12.0096	19,999.5	5.64741
