"Directivity Index"			
"Sound Power DI"		"Early Reflections DI"	
"Frequency [Hz]"	"[dB] Directivity Index "	"Frequency [Hz]"	"[dB] Directivity Index "
20.5078	-5.24492	20.5078	-1.36888
21.9727	-2.89874	21.9727	-0.20457
23.4375	-2.82422	23.4375	-0.0854929
24.9023	-2.27979	24.9023	0.0730803
26.3672	-2.31174	26.3672	-0.0669346
27.832	-2.04433	27.832	-0.0571408
29.2969	-1.85696	29.2969	-0.0739362
30.7617	-1.78297	30.7617	-0.106987
32.2266	-1.59231	32.2266	-0.110034
33.6914	-1.55625	33.6914	-0.160944
35.1563	-1.41295	35.1563	-0.163255
36.6211	-1.33914	36.6211	-0.179324
38.0859	-1.23909	38.0859	-0.179778
39.5508	-1.19438	39.5508	-0.191832
41.0156	-1.1243	41.0156	-0.221698
42.4805	-1.00541	42.4805	-0.194854
43.9453	-0.848206	43.9453	-0.148246
45.4102	-0.786135	45.4102	-0.139441
46.875	-0.769271	46.875	-0.148951
48.3398	-0.880385	48.3398	-0.214478
51.2695	-0.713026	51.2695	-0.182654
52.7344	-0.654218	52.7344	-0.171035
54.1992	-0.640341	54.1992	-0.178032
55.6641	-0.588287	55.6641	-0.167677
58.5938	-0.542862	58.5938	-0.165745
60.0586	-0.52874	60.0586	-0.168003
62.9883	-0.513519	62.9883	-0.175869
64.4531	-0.501826	64.4531	-0.17806
67.3828	-0.463675	67.3828	-0.174016
68.8477	-0.444619	68.8477	-0.170993
71.7773	-0.397908	71.7773	-0.160982
74.707	-0.351051	74.707	-0.149299
77.6367	-0.337717	77.6367	-0.150312
79.1016	-0.316323	79.1016	-0.144563
82.0313	-0.29781	82.0313	-0.14207
84.9609	-0.288892	84.9609	-0.141943
87.8906	-0.230139	87.8906	-0.122062
90.8203	-0.216452	90.8203	-0.119403
95.2148	-0.146783	95.2148	-0.0949219
98.1445	-0.123651	98.1445	-0.0870954
101.074	-0.104075	101.074	-0.0813364
105.469	-0.0569756	105.469	-0.0611257
108.398	-0.064958	108.398	-0.0654052
112.793	0.0125277	112.793	-0.0375519
117.188	0.0583283	117.188	-0.0145301
120.117	0.0710237	120.117	-0.00594144
124.512	0.0907178	124.512	0.00262973
128.906	0.176373	128.906	0.0377348
133.301	0.167709	133.301	0.0368628
139.16	0.201527	139.16	0.0554676
143.555	0.270945	143.555	0.0875378
147.949	0.380627	147.949	0.134516
153.809	0.433336	153.809	0.155396
159.668	0.463882	159.668	0.173937
165.527	0.478865	165.527	0.185469
171.387	0.532191	171.387	0.214752
177.246	0.590855	177.246	0.240236
183.105	0.682712	183.105	0.294212
188.965	0.917075	188.965	0.375684
196.289	0.909031	196.289	0.366082
203.613	0.993435	203.613	0.416764
210.938	1.1508	210.938	0.471626
218.262	1.19571	218.262	0.485554
225.586	1.20496	225.586	0.514199
232.91	1.50886	232.91	0.616921
241.699	1.54471	241.699	0.604533
250.488	1.60052	250.488	0.655124
259.277	1.71937	259.277	0.675573
268.066	1.49005	268.066	0.623103
276.855	1.96898	276.855	0.800395
287.109	1.91371	287.109	0.731456
297.363	2.00564	297.363	0.824871
307.617	2.11158	307.617	0.800043
319.336	1.89772	319.336	0.730714
329.59	2.20425	329.59	0.801021
341.309	1.89328	341.309	0.716509
353.027	2.27118	353.027	0.969891
366.211	2.5984	366.211	0.96371
379.395	2.63681	379.395	0.941298
392.578	2.10712	392.578	0.750459
405.762	2.27539	405.762	0.969005
420.41	3.02683	420.41	1.29171
435.059	2.85997	435.059	1.18754
451.172	3.27513	451.172	1.35239
465.82	3.34056	465.82	1.24499
483.398	3.1376	483.398	1.15545
499.512	3.2134	499.512	1.25533
517.09	3.8883	517.09	1.55755
536.133	3.9999	536.133	1.78993
555.176	4.29254	555.176	1.62025
574.219	3.99496	574.219	1.38059
594.727	3.91565	594.727	1.29911
615.234	4.10542	615.234	1.52453
637.207	3.93239	637.207	1.43153
659.18	4.75627	659.18	1.95827
682.617	4.42701	682.617	1.74007
707.52	4.716	707.52	1.95674
732.422	5.05977	732.422	2.17079
757.324	4.90136	757.324	2.10349
785.156	5.05216	785.156	2.16366
811.523	5.1022	811.523	2.24202
840.82	5.32762	840.82	2.37757
870.117	5.26017	870.117	2.34818
900.879	5.45241	900.879	2.3604
933.105	5.4664	933.105	2.3733
965.332	5.53517	965.332	2.40814
1,000.49	5.80243	1,000.49	2.51751
1,035.64	5.89394	1,035.64	2.6181
1,072.27	6.11937	1,072.27	2.70328
1,108.89	6.07734	1,108.89	2.76011
1,148.44	6.11029	1,148.44	2.76558
1,189.45	6.15331	1,189.45	2.84929
1,230.47	6.23763	1,230.47	2.83644
1,274.41	6.27452	1,274.41	2.87579
1,319.82	6.22269	1,319.82	2.88125
1,366.7	6.15443	1,366.7	2.8554
1,413.57	5.9037	1,413.57	2.97004
1,463.38	6.17951	1,463.38	3.24055
1,516.11	6.57572	1,516.11	3.37252
1,568.85	6.6407	1,568.85	3.16768
1,624.51	6.24601	1,624.51	3.20161
1,681.64	6.53511	1,681.64	3.14171
1,741.7	6.73468	1,741.7	3.14579
1,803.22	7.03538	1,803.22	3.407
1,866.21	6.76023	1,866.21	3.29714
1,932.13	6.55941	1,932.13	3.13829
1,999.51	6.65701	1,999.51	3.22355
2,069.82	6.42046	2,069.82	3.1639
2,143.07	6.39349	2,143.07	3.07798
2,219.24	6.45459	2,219.24	2.9855
2,296.88	5.71299	2,296.88	2.48162
2,378.91	5.77765	2,378.91	2.53946
2,462.4	5.49997	2,462.4	2.36087
2,548.83	5.23652	2,548.83	2.19763
2,639.65	4.97612	2,639.65	1.98259
2,731.93	4.66592	2,731.93	1.71178
2,828.61	4.40396	2,828.61	1.52882
2,928.22	4.20796	2,928.22	1.27489
3,030.76	4.23313	3,030.76	1.21751
3,137.7	4.3866	3,137.7	1.19493
3,249.02	4.60151	3,249.02	1.33755
3,363.28	4.61101	3,363.28	1.42132
3,481.93	4.67545	3,481.93	1.48586
3,604.98	4.97168	3,604.98	1.62815
3,732.42	5.15537	3,732.42	1.69469
3,864.26	5.38299	3,864.26	1.81751
4,000.49	5.36831	4,000.49	1.81761
4,141.11	5.59821	4,141.11	1.88784
4,287.6	5.35997	4,287.6	1.92109
4,438.48	5.3143	4,438.48	1.79722
4,595.21	5.25298	4,595.21	1.72184
4,756.35	4.91452	4,756.35	1.42046
4,924.8	4.60573	4,924.8	1.34125
5,097.66	4.76851	5,097.66	1.41228
5,277.83	5.04245	5,277.83	1.76423
5,463.87	5.22958	5,463.87	1.80548
5,657.23	5.52055	5,657.23	1.89498
5,856.45	5.51599	5,856.45	1.92011
6,062.99	5.26159	6,062.99	1.77156
6,276.86	5.32754	6,276.86	1.83442
6,498.05	5.54795	6,498.05	1.9321
6,726.56	5.8091	6,726.56	2.11332
6,963.87	5.90241	6,963.87	2.14109
7,209.96	6.07781	7,209.96	2.2519
7,464.84	6.23	7,464.84	2.32725
7,727.05	6.41067	7,727.05	2.43772
7,999.51	6.56853	7,999.51	2.58239
8,282.23	6.89608	8,282.23	2.90024
8,573.73	7.22598	8,573.73	3.09441
8,876.95	7.29139	8,876.95	3.08624
9,188.96	7.38204	9,188.96	3.14325
9,514.16	7.45889	9,514.16	3.13774
9,849.61	7.55969	9,849.61	3.15708
10,196.8	7.75026	10,196.8	3.27907
10,555.7	7.90733	10,555.7	3.37714
10,927.7	8.18126	10,927.7	3.54961
11,313	8.44752	11,313	3.67283
11,712.9	8.6419	11,712.9	3.76065
12,126	8.90989	12,126	3.92161
12,553.7	8.9994	12,553.7	3.97435
12,996.1	8.94962	12,996.1	3.94162
13,454.6	8.9249	13,454.6	3.93182
13,929.2	8.92879	13,929.2	3.95613
14,419.9	9.05313	14,419.9	4.08249
14,928.2	9.22205	14,928.2	4.17063
15,455.6	9.30789	15,455.6	4.17133
16,000.5	9.24494	16,000.5	4.13637
16,564.5	9.26569	16,564.5	4.15267
17,148.9	9.32589	17,148.9	4.18028
17,752.4	9.5515	17,752.4	4.30018
18,379.4	9.82046	18,379.4	4.45323
19,026.9	10.1363	19,026.9	4.62815
19,697.8	10.3167	19,697.8	4.7124
19,999.5	10.3343	19,999.5	4.75129
