"Directivity Index"			
"Sound Power DI"		"Early Reflections DI"	
"Frequency [Hz]"	"[dB] Directivity Index "	"Frequency [Hz]"	"[dB] Directivity Index "
20.5078	-1.85044	20.5078	0.262845
21.9727	1.70188	21.9727	0.576543
23.4375	1.18055	23.4375	0.387001
24.9023	0.522351	24.9023	0.169105
26.3672	0.20102	26.3672	0.0751395
27.832	0.13244	27.832	0.0537015
29.2969	0.251093	29.2969	0.102451
30.7617	0.326828	30.7617	0.133921
32.2266	0.287536	32.2266	0.12236
33.6914	0.238619	33.6914	0.101639
35.1562	0.215479	35.1562	0.100077
36.6211	0.241284	36.6211	0.106824
38.0859	0.265654	38.0859	0.118006
39.5508	0.243592	39.5508	0.111723
41.0156	0.193265	41.0156	0.100915
42.4805	0.350701	42.4805	0.155445
43.9453	0.32885	43.9453	0.147787
45.4102	0.302269	45.4102	0.139393
46.875	0.331709	46.875	0.150941
48.3398	0.338611	48.3398	0.153872
51.2695	0.342345	51.2695	0.157895
52.7344	0.348988	52.7344	0.16072
54.1992	0.351301	54.1992	0.162134
55.6641	0.364755	55.6641	0.167573
58.5938	0.373723	58.5938	0.172376
60.0586	0.365979	60.0586	0.170595
62.9883	0.383952	62.9883	0.179041
64.4531	0.388765	64.4531	0.181722
67.3828	0.394786	67.3828	0.184691
68.8477	0.39542	68.8477	0.186136
71.7773	0.404342	71.7773	0.191152
74.707	0.414863	74.707	0.196348
77.6367	0.45387	77.6367	0.213304
79.1016	0.487296	79.1016	0.22545
82.0312	0.43749	82.0312	0.20564
84.9609	0.262994	84.9609	0.145509
87.8906	0.156554	87.8906	0.118962
90.8203	0.51869	90.8203	0.253505
95.2148	0.542598	95.2148	0.256331
98.1445	0.541455	98.1445	0.259534
101.074	0.52409	101.074	0.255668
105.469	0.506303	105.469	0.253164
108.398	0.51294	108.398	0.255328
112.793	0.576282	112.793	0.279833
117.188	0.502905	117.188	0.262311
120.117	0.602134	120.117	0.305348
124.512	0.648217	124.512	0.322123
128.906	0.706402	128.906	0.337366
133.301	0.625924	133.301	0.312815
139.16	0.665886	139.16	0.336734
143.555	0.685606	143.555	0.350543
147.949	0.711804	147.949	0.363836
153.809	0.782746	153.809	0.399649
159.668	0.827059	159.668	0.414718
165.527	0.844625	165.527	0.426928
171.387	0.843494	171.387	0.430176
177.246	0.882858	177.246	0.444782
183.105	0.8648	183.105	0.454286
188.965	0.970126	188.965	0.509626
196.289	1.07471	196.289	0.532205
203.613	1.18979	203.613	0.584829
210.938	1.21212	210.938	0.583189
218.262	1.13272	218.262	0.559648
225.586	1.19402	225.586	0.604636
232.91	1.31254	232.91	0.641954
241.699	1.34776	241.699	0.642118
250.488	1.40585	250.488	0.699209
259.277	1.49929	259.277	0.735557
268.066	1.32948	268.066	0.725016
276.855	1.38173	276.855	0.79636
287.109	1.8028	287.109	0.957921
297.363	1.76377	297.363	0.946746
307.617	1.98276	307.617	1.01136
319.336	2.17714	319.336	1.07787
329.59	2.39936	329.59	1.13835
341.309	2.18946	341.309	1.03722
353.027	2.72803	353.027	1.25879
366.211	2.75959	366.211	1.21969
379.395	2.80234	379.395	1.18605
392.578	2.64074	392.578	1.11438
405.762	2.73053	405.762	1.25396
420.41	3.22915	420.41	1.36685
435.059	2.88096	435.059	1.1984
451.172	3.30541	451.172	1.35393
465.82	3.3775	465.82	1.34864
483.398	3.37286	483.398	1.29506
499.512	3.33333	499.512	1.25508
517.09	3.27398	517.09	1.2181
536.133	2.72808	536.133	0.906472
555.176	3.39167	555.176	1.03581
574.219	3.50415	574.219	1.12761
594.727	3.27219	594.727	1.05766
615.234	3.68738	615.234	1.26265
637.207	3.52333	637.207	1.1534
659.18	3.79402	659.18	1.36173
682.617	4.00095	682.617	1.47431
707.52	3.95301	707.52	1.39714
732.422	4.15322	732.422	1.57782
757.324	4.35225	757.324	1.69434
785.156	4.47292	785.156	1.74457
811.523	4.42877	811.523	1.77546
840.82	4.81733	840.82	2.03466
870.117	4.78927	870.117	2.06436
900.879	5.02076	900.879	2.24023
933.105	5.07087	933.105	2.31949
965.332	4.87878	965.332	2.22546
1,000.49	5.10859	1,000.49	2.3475
1,035.64	5.07851	1,035.64	2.3008
1,072.27	5.28619	1,072.27	2.35697
1,108.89	5.65783	1,108.89	2.51691
1,148.44	5.75428	1,148.44	2.48628
1,189.45	5.77719	1,189.45	2.51835
1,230.47	5.66934	1,230.47	2.38498
1,274.41	5.6295	1,274.41	2.44281
1,319.82	5.65917	1,319.82	2.38617
1,366.7	5.82688	1,366.7	2.38038
1,413.57	5.8092	1,413.57	2.46029
1,463.38	5.94473	1,463.38	2.4856
1,516.11	6.95445	1,516.11	2.93539
1,568.85	8.002	1,568.85	3.50106
1,624.51	6.41006	1,624.51	3.23111
1,681.64	5.42281	1,681.64	2.70147
1,741.7	2.9932	1,741.7	1.67086
1,803.22	0.40345	1,803.22	-0.836934
1,866.21	6.0309	1,866.21	2.11614
1,932.13	7.76631	1,932.13	3.07127
1,999.51	7.42941	1,999.51	2.98213
2,069.82	6.8316	2,069.82	2.85917
2,143.07	6.92328	2,143.07	3.02385
2,219.24	7.40763	2,219.24	3.34839
2,296.88	6.40279	2,296.88	2.7361
2,378.91	5.02282	2,378.91	2.06057
2,462.4	5.1036	2,462.4	1.83972
2,548.83	4.64126	2,548.83	1.46462
2,639.65	3.59646	2,639.65	0.819501
2,731.93	2.70196	2,731.93	0.0836989
2,828.61	2.73546	2,828.61	0.177188
2,928.22	3.57633	2,928.22	1.04678
3,030.76	4.32287	3,030.76	1.5384
3,137.7	4.62911	3,137.7	1.63962
3,249.02	4.92678	3,249.02	1.81234
3,363.28	5.23516	3,363.28	2.04267
3,481.93	5.30467	3,481.93	2.05603
3,604.98	6.12188	3,604.98	2.45619
3,732.42	5.54421	3,732.42	2.02694
3,864.26	3.84234	3,864.26	0.689731
4,000.49	3.74612	4,000.49	0.438083
4,141.11	3.18778	4,141.11	0.113247
4,287.6	3.86655	4,287.6	0.722342
4,438.48	3.84348	4,438.48	0.741853
4,595.21	4.36878	4,595.21	0.912389
4,756.35	4.42095	4,756.35	1.02492
4,924.8	4.5702	4,924.8	1.09522
5,097.66	4.55618	5,097.66	1.03186
5,277.83	4.64534	5,277.83	1.16505
5,463.87	4.08369	5,463.87	0.822205
5,657.23	4.96117	5,657.23	1.47845
5,856.45	5.11802	5,856.45	1.67371
6,062.99	5.48349	6,062.99	1.89256
6,276.86	5.81561	6,276.86	2.08652
6,498.05	5.88461	6,498.05	2.1224
6,726.56	6.03424	6,726.56	2.16106
6,963.87	6.07939	6,963.87	2.24047
7,209.96	6.32593	7,209.96	2.33604
7,464.84	6.38546	7,464.84	2.36486
7,727.05	6.34068	7,727.05	2.36078
7,999.51	6.29004	7,999.51	2.4894
8,282.23	6.17663	8,282.23	2.45899
8,573.73	6.62726	8,573.73	2.70976
8,876.95	7.59786	8,876.95	3.26635
9,188.96	8.34636	9,188.96	3.67264
9,514.16	8.6366	9,514.16	3.85609
9,849.61	8.8212	9,849.61	3.91927
10,196.8	9.01708	10,196.8	4.01212
10,555.7	9.11301	10,555.7	4.03976
10,927.7	9.28455	10,927.7	4.14218
11,313	9.54931	11,313	4.30302
11,712.9	9.85321	11,712.9	4.48499
12,126	9.93653	12,126	4.49896
12,553.7	10.0132	12,553.7	4.48547
12,996.1	10.2833	12,996.1	4.62373
13,454.6	10.3542	13,454.6	4.74556
13,929.2	10.2815	13,929.2	4.83587
14,419.9	10.1063	14,419.9	4.88606
14,928.2	10.0245	14,928.2	4.82528
15,455.6	10.2782	15,455.6	4.87627
16,000.5	10.5255	16,000.5	4.97233
16,564.5	10.5615	16,564.5	4.91781
17,148.9	10.5749	17,148.9	4.81982
17,752.4	10.6919	17,752.4	4.72228
18,379.4	10.6272	18,379.4	4.65597
19,026.9	10.7484	19,026.9	4.75171
19,697.8	10.8883	19,697.8	4.80576
19,999.5	10.8414	19,999.5	4.75642
