"Directivity Index"			
"Sound Power DI"		"Early Reflections DI"	
"Frequency [Hz]"	"[dB] Directivity Index "	"Frequency [Hz]"	"[dB] Directivity Index "
20.5078	0.358743	20.5078	0.170161
21.9727	0.276039	21.9727	0.125088
23.4375	0.287012	23.4375	0.129906
24.9023	0.253604	24.9023	0.116848
26.3672	0.266701	26.3672	0.127105
27.832	0.253261	27.832	0.120405
29.2969	0.292359	29.2969	0.133971
30.7617	0.199484	30.7617	0.0940151
32.2266	0.215255	32.2266	0.103219
33.6914	0.238647	33.6914	0.112247
35.1563	0.200448	35.1563	0.0992921
36.6211	0.25876	36.6211	0.123265
38.0859	0.256623	38.0859	0.118569
39.5508	0.184433	39.5508	0.0919483
41.0156	0.143925	41.0156	0.0692818
42.4805	0.308627	42.4805	0.140464
43.9453	0.222469	43.9453	0.10757
45.4102	0.235215	45.4102	0.118178
46.875	0.381772	46.875	0.168552
48.3398	0.322135	48.3398	0.141753
51.2695	0.269301	51.2695	0.124246
52.7344	0.254051	52.7344	0.11978
54.1992	0.226508	54.1992	0.110948
55.6641	0.239831	55.6641	0.118501
58.5938	0.361896	58.5938	0.160734
60.0586	0.328526	60.0586	0.147996
62.9883	0.31706	62.9883	0.145017
64.4531	0.294087	64.4531	0.136401
67.3828	0.260517	67.3828	0.126212
68.8477	0.265071	68.8477	0.128968
71.7773	0.285627	71.7773	0.139381
74.707	0.346427	74.707	0.161123
77.6367	0.309526	77.6367	0.14748
79.1016	0.292691	79.1016	0.141529
82.0313	0.25508	82.0313	0.128938
84.9609	0.218983	84.9609	0.120742
87.8906	0.389755	87.8906	0.186228
90.8203	0.383353	90.8203	0.180555
95.2148	0.327107	95.2148	0.163876
98.1445	0.395445	98.1445	0.189315
101.074	0.33801	101.074	0.167412
105.469	0.378241	105.469	0.186541
108.398	0.362749	108.398	0.182556
112.793	0.376966	112.793	0.194919
117.188	0.407123	117.188	0.2071
120.117	0.441696	120.117	0.218517
124.512	0.454257	124.512	0.22284
128.906	0.428931	128.906	0.216325
133.301	0.429237	133.301	0.222134
139.16	0.460935	139.16	0.238207
143.555	0.48362	143.555	0.250238
147.949	0.510418	147.949	0.261954
153.809	0.518753	153.809	0.270948
159.668	0.543594	159.668	0.283271
165.527	0.56731	165.527	0.297542
171.387	0.630993	171.387	0.323835
177.246	0.600098	177.246	0.316507
183.105	0.64541	183.105	0.341721
188.965	0.700374	188.965	0.3627
196.289	0.739419	196.289	0.381961
203.613	0.779913	203.613	0.404544
210.938	0.81226	210.938	0.417554
218.262	0.83479	218.262	0.428624
225.586	0.828543	225.586	0.440245
232.91	0.941434	232.91	0.489739
241.699	0.914396	241.699	0.483366
250.488	0.957162	250.488	0.540731
259.277	1.18732	259.277	0.62567
268.066	1.2333	268.066	0.644588
276.855	1.3816	276.855	0.671808
287.109	1.30931	287.109	0.656626
297.363	1.28575	297.363	0.714716
307.617	1.4433	307.617	0.77327
319.336	1.55666	319.336	0.820197
329.59	1.83152	329.59	0.919204
341.309	1.79462	341.309	0.879117
353.027	2.03549	353.027	1.01065
366.211	2.1395	366.211	1.0001
379.395	2.13601	379.395	1.02102
392.578	2.20694	392.578	1.02924
405.762	2.13059	405.762	1.02261
420.41	2.62158	420.41	1.22897
435.059	2.3635	435.059	1.0959
451.172	2.76789	451.172	1.26471
465.82	2.7959	465.82	1.24223
483.398	2.87983	483.398	1.27231
499.512	2.82011	499.512	1.2209
517.09	3.04467	517.09	1.32068
536.133	2.99584	536.133	1.29699
555.176	3.4086	555.176	1.36244
574.219	3.50181	574.219	1.39082
594.727	3.86434	594.727	1.50801
615.234	4.03918	615.234	1.50288
637.207	3.80742	637.207	1.34831
659.18	3.62148	659.18	1.2807
682.617	3.61811	682.617	1.28154
707.52	3.7231	707.52	1.27196
732.422	3.8121	732.422	1.38077
757.324	3.77736	757.324	1.31661
785.156	4.04711	785.156	1.39879
811.523	3.98508	811.523	1.40934
840.82	3.83307	840.82	1.33954
870.117	3.8624	870.117	1.42725
900.879	4.10313	900.879	1.5912
933.105	4.41547	933.105	1.74745
965.332	4.71204	965.332	1.91272
1,000.49	4.83884	1,000.49	1.97551
1,035.64	5.21354	1,035.64	2.30041
1,072.27	5.66997	1,072.27	2.46007
1,108.89	5.82183	1,108.89	2.58279
1,148.44	5.83462	1,148.44	2.56702
1,189.45	5.75017	1,189.45	2.5415
1,230.47	5.75088	1,230.47	2.47023
1,274.41	6.00913	1,274.41	2.60477
1,319.82	6.08285	1,319.82	2.59841
1,366.7	6.09876	1,366.7	2.59589
1,413.57	6.06613	1,413.57	2.51327
1,463.38	6.63826	1,463.38	2.73494
1,516.11	6.91985	1,516.11	2.82491
1,568.85	7.00708	1,568.85	2.81924
1,624.51	7.09481	1,624.51	2.84653
1,681.64	7.21717	1,681.64	2.99383
1,741.7	7.45759	1,741.7	3.07136
1,803.22	7.52759	1,803.22	3.13942
1,866.21	7.53508	1,866.21	3.20482
1,932.13	7.70587	1,932.13	3.27498
1,999.51	7.58255	1,999.51	3.31699
2,069.82	7.34956	2,069.82	3.33021
2,143.07	7.07487	2,143.07	3.44899
2,219.24	7.07906	2,219.24	3.42646
2,296.88	7.11569	2,296.88	3.38471
2,378.91	7.00329	2,378.91	3.1621
2,462.4	7.10557	2,462.4	3.21116
2,548.83	6.89419	2,548.83	3.13414
2,639.65	7.00229	2,639.65	3.06183
2,731.93	6.85476	2,731.93	3.0773
2,828.61	6.70463	2,828.61	2.96054
2,928.22	6.86579	2,928.22	3.00248
3,030.76	7.07086	3,030.76	3.22557
3,137.7	7.15924	3,137.7	3.31237
3,249.02	7.35062	3,249.02	3.39561
3,363.28	7.51976	3,363.28	3.36425
3,481.93	7.57365	3,481.93	3.33993
3,604.98	7.33945	3,604.98	3.20712
3,732.42	7.17877	3,732.42	3.05929
3,864.26	7.12759	3,864.26	2.95599
4,000.49	6.96454	4,000.49	2.98024
4,141.11	7.28968	4,141.11	3.09103
4,287.6	7.5017	4,287.6	3.08955
4,438.48	7.54827	4,438.48	3.03933
4,595.21	7.43963	4,595.21	2.94141
4,756.35	7.46109	4,756.35	2.93403
4,924.8	7.3909	4,924.8	2.99484
5,097.66	7.41651	5,097.66	2.91609
5,277.83	7.4526	5,277.83	3.03118
5,463.87	7.38411	5,463.87	3.00968
5,657.23	7.19947	5,657.23	2.87717
5,856.45	7.18289	5,856.45	2.92447
6,062.99	7.07606	6,062.99	2.87578
6,276.86	6.93467	6,276.86	2.79998
6,498.05	6.91496	6,498.05	2.74344
6,726.56	6.91637	6,726.56	2.70644
6,963.87	6.89646	6,963.87	2.65371
7,209.96	7.06571	7,209.96	2.72784
7,464.84	7.04354	7,464.84	2.73691
7,727.05	7.09465	7,727.05	2.79962
7,999.51	7.26997	7,999.51	2.93164
8,282.23	7.20333	8,282.23	2.94392
8,573.73	7.37851	8,573.73	3.07529
8,876.95	7.4815	8,876.95	3.13542
9,188.96	7.49987	9,188.96	3.17402
9,514.16	7.44006	9,514.16	3.12353
9,849.61	7.63892	9,849.61	3.23529
10,196.8	7.82656	10,196.8	3.35303
10,555.7	8.01451	10,555.7	3.43613
10,927.7	8.10913	10,927.7	3.49688
11,313	7.90058	11,313	3.36477
11,712.9	7.78022	11,712.9	3.27736
12,126	7.83948	12,126	3.31281
12,553.7	7.74636	12,553.7	3.2296
12,996.1	7.37476	12,996.1	2.90374
13,454.6	7.05868	13,454.6	2.67622
13,929.2	6.64536	13,929.2	2.34459
14,419.9	6.32433	14,419.9	2.13791
14,928.2	5.93034	14,928.2	1.87385
15,455.6	6.02659	15,455.6	1.93193
16,000.5	6.45211	16,000.5	2.22394
16,564.5	7.28074	16,564.5	2.83398
17,148.9	7.03672	17,148.9	2.64689
17,752.4	7.71428	17,752.4	3.14324
18,379.4	8.36173	18,379.4	3.5929
19,026.9	9.05592	19,026.9	3.97593
19,697.8	9.74615	19,697.8	4.35494
19,999.5	10.0639	19,999.5	4.50858
